#
# Results on Monday November 09 2015 21:58:42 UTC.
# USER AGENT: Mozilla/5.0 (Windows NT 6.1; WOW64) AppleWebKit/537.36 (KHTML, like Gecko) Chrome/46.0.2490.71 Safari/537.36
# Design number was non-random = 0
#
# Columns below this comment are as follows:
# 1. Time results were received.
# 2. MD5 hash of participant's IP address.
# 3. Controller name.
# 4. Item number.
# 5. Element number.
# 6. Type.
# 7. Group.
# 8. Field name.
# 9. Field value.
1447106323,a9627f0f32eaf2d907dae5c35f2b5fd4,Form,2,0,intro,NULL,consentanswer,tpT,P
1447106323,a9627f0f32eaf2d907dae5c35f2b5fd4,Form,2,0,intro,NULL,_REACTION_TIME_,7347
1447106323,a9627f0f32eaf2d907dae5c35f2b5fd4,Form,3,0,questionnaire,NULL,write_something,
1447106323,a9627f0f32eaf2d907dae5c35f2b5fd4,Form,3,0,questionnaire,NULL,NatLang,eng
1447106323,a9627f0f32eaf2d907dae5c35f2b5fd4,Form,3,0,questionnaire,NULL,disorder,disorderno
1447106323,a9627f0f32eaf2d907dae5c35f2b5fd4,Form,3,0,questionnaire,NULL,_REACTION_TIME_,17478
1447106323,a9627f0f32eaf2d907dae5c35f2b5fd4,Form,4,0,headphones,NULL,headphonebrand,JVC
1447106323,a9627f0f32eaf2d907dae5c35f2b5fd4,Form,4,0,headphones,NULL,headphonemodel,Unknown
1447106323,a9627f0f32eaf2d907dae5c35f2b5fd4,Form,4,0,headphones,NULL,headphoneyesno,headphoneyes
1447106323,a9627f0f32eaf2d907dae5c35f2b5fd4,Form,4,0,headphones,NULL,_REACTION_TIME_,96272
# Columns below this comment are as follows:
# 1. Time results were received.
# 2. MD5 hash of participant's IP address.
# 3. Controller name.
# 4. Item number.
# 5. Element number.
# 6. Type.
# 7. Group.
# 8. Question (NULL if none).
# 9. Answer.
# 10. Whether or not answer was correct (NULL if N/A).
# 11. Time taken to answer.
1447106323,a9627f0f32eaf2d907dae5c35f2b5fd4,Trial,22,0,pnt_b_1,NULL,&nbsp;&nbsp;&nbsp;&nbsp;click on the sound,P,NULL,4913
1447106323,a9627f0f32eaf2d907dae5c35f2b5fd4,Trial,23,0,pnt_b_18,NULL,&nbsp;&nbsp;&nbsp;&nbsp;click on the sound,T,NULL,1403
1447106323,a9627f0f32eaf2d907dae5c35f2b5fd4,Trial,24,0,pnt_sp_1,NULL,&nbsp;&nbsp;&nbsp;&nbsp;click on the sound,P,NULL,1556
1447106323,a9627f0f32eaf2d907dae5c35f2b5fd4,Trial,25,0,pnt_sp_18,NULL,&nbsp;&nbsp;&nbsp;&nbsp;click on the sound,T,NULL,1962
1447106323,a9627f0f32eaf2d907dae5c35f2b5fd4,Trial,26,0,pto_sp_1,NULL,&nbsp;&nbsp;&nbsp;&nbsp;click on the sound,P,NULL,1194
1447106323,a9627f0f32eaf2d907dae5c35f2b5fd4,Trial,29,0,pto_b_18,NULL,&nbsp;&nbsp;&nbsp;&nbsp;click on the sound,T,NULL,1234
1447106323,a9627f0f32eaf2d907dae5c35f2b5fd4,Trial,27,0,pto_sp_18,NULL,&nbsp;&nbsp;&nbsp;&nbsp;click on the sound,T,NULL,2249
1447106323,a9627f0f32eaf2d907dae5c35f2b5fd4,Trial,28,0,pto_b_1,NULL,&nbsp;&nbsp;&nbsp;&nbsp;click on the sound,P,NULL,1168
1447106323,a9627f0f32eaf2d907dae5c35f2b5fd4,Trial,35,0,t_b_11,NULL,NULL,T,NULL,2171
1447106323,a9627f0f32eaf2d907dae5c35f2b5fd4,Trial,40,0,t_sp_9,NULL,NULL,P,NULL,1820
1447106323,a9627f0f32eaf2d907dae5c35f2b5fd4,Trial,39,0,t_sp_8,NULL,NULL,P,NULL,1605
1447106323,a9627f0f32eaf2d907dae5c35f2b5fd4,Trial,37,0,t_sp_1,NULL,NULL,P,NULL,1352
1447106323,a9627f0f32eaf2d907dae5c35f2b5fd4,Trial,54,0,t_sp_9,NULL,NULL,P,NULL,1240
1447106323,a9627f0f32eaf2d907dae5c35f2b5fd4,Trial,33,0,t_b_9,NULL,NULL,P,NULL,1669
1447106323,a9627f0f32eaf2d907dae5c35f2b5fd4,Trial,53,0,t_sp_8,NULL,NULL,P,NULL,1319
1447106323,a9627f0f32eaf2d907dae5c35f2b5fd4,Trial,30,0,t_b_1,NULL,NULL,T,NULL,1270
1447106323,a9627f0f32eaf2d907dae5c35f2b5fd4,Trial,32,0,t_b_8,NULL,NULL,P,NULL,1843
1447106323,a9627f0f32eaf2d907dae5c35f2b5fd4,Trial,42,0,t_sp_11,NULL,NULL,T,NULL,2372
1447106323,a9627f0f32eaf2d907dae5c35f2b5fd4,Trial,41,0,t_sp_10,NULL,NULL,P,NULL,1493
1447106323,a9627f0f32eaf2d907dae5c35f2b5fd4,Trial,34,0,t_b_10,NULL,NULL,P,NULL,1970
1447106323,a9627f0f32eaf2d907dae5c35f2b5fd4,Trial,51,0,t_sp_1,NULL,NULL,P,NULL,1403
1447106323,a9627f0f32eaf2d907dae5c35f2b5fd4,Trial,47,0,t_b_9,NULL,NULL,P,NULL,1271
1447106323,a9627f0f32eaf2d907dae5c35f2b5fd4,Trial,55,0,t_sp_10,NULL,NULL,P,NULL,1734
1447106323,a9627f0f32eaf2d907dae5c35f2b5fd4,Trial,45,0,t_b_7,NULL,NULL,P,NULL,1578
1447106323,a9627f0f32eaf2d907dae5c35f2b5fd4,Trial,31,0,t_b_7,NULL,NULL,P,NULL,1133
1447106323,a9627f0f32eaf2d907dae5c35f2b5fd4,Trial,44,0,t_b_1,NULL,NULL,T,NULL,1293
1447106323,a9627f0f32eaf2d907dae5c35f2b5fd4,Trial,49,0,t_b_11,NULL,NULL,P,NULL,1074
1447106323,a9627f0f32eaf2d907dae5c35f2b5fd4,Trial,50,0,t_b_18,NULL,NULL,T,NULL,1384
1447106323,a9627f0f32eaf2d907dae5c35f2b5fd4,Trial,46,0,t_b_8,NULL,NULL,T,NULL,1172
1447106323,a9627f0f32eaf2d907dae5c35f2b5fd4,Trial,57,0,t_sp_18,NULL,NULL,T,NULL,1346
1447106323,a9627f0f32eaf2d907dae5c35f2b5fd4,Trial,43,0,t_sp_18,NULL,NULL,T,NULL,966
1447106323,a9627f0f32eaf2d907dae5c35f2b5fd4,Trial,52,0,t_sp_7,NULL,NULL,P,NULL,1898
1447106323,a9627f0f32eaf2d907dae5c35f2b5fd4,Trial,38,0,t_sp_7,NULL,NULL,P,NULL,1628
1447106323,a9627f0f32eaf2d907dae5c35f2b5fd4,Trial,56,0,t_sp_11,NULL,NULL,P,NULL,1243
1447106323,a9627f0f32eaf2d907dae5c35f2b5fd4,Trial,48,0,t_b_10,NULL,NULL,P,NULL,1326
1447106323,a9627f0f32eaf2d907dae5c35f2b5fd4,Trial,36,0,t_b_18,NULL,NULL,T,NULL,1080
1447106323,a9627f0f32eaf2d907dae5c35f2b5fd4,Trial,55,0,t_sp_10,NULL,NULL,T,NULL,1322
1447106323,a9627f0f32eaf2d907dae5c35f2b5fd4,Trial,57,0,t_sp_18,NULL,NULL,T,NULL,905
1447106323,a9627f0f32eaf2d907dae5c35f2b5fd4,Trial,37,0,t_sp_1,NULL,NULL,P,NULL,1118
1447106323,a9627f0f32eaf2d907dae5c35f2b5fd4,Trial,51,0,t_sp_1,NULL,NULL,P,NULL,996
1447106323,a9627f0f32eaf2d907dae5c35f2b5fd4,Trial,32,0,t_b_8,NULL,NULL,P,NULL,1172
1447106323,a9627f0f32eaf2d907dae5c35f2b5fd4,Trial,33,0,t_b_9,NULL,NULL,P,NULL,839
1447106323,a9627f0f32eaf2d907dae5c35f2b5fd4,Trial,30,0,t_b_1,NULL,NULL,P,NULL,827
1447106323,a9627f0f32eaf2d907dae5c35f2b5fd4,Trial,35,0,t_b_11,NULL,NULL,T,NULL,1542
1447106323,a9627f0f32eaf2d907dae5c35f2b5fd4,Trial,44,0,t_b_1,NULL,NULL,P,NULL,945
1447106323,a9627f0f32eaf2d907dae5c35f2b5fd4,Trial,48,0,t_b_10,NULL,NULL,T,NULL,980
1447106323,a9627f0f32eaf2d907dae5c35f2b5fd4,Trial,31,0,t_b_7,NULL,NULL,P,NULL,1218
1447106323,a9627f0f32eaf2d907dae5c35f2b5fd4,Trial,49,0,t_b_11,NULL,NULL,T,NULL,1026
1447106323,a9627f0f32eaf2d907dae5c35f2b5fd4,Trial,43,0,t_sp_18,NULL,NULL,T,NULL,1130
1447106323,a9627f0f32eaf2d907dae5c35f2b5fd4,Trial,47,0,t_b_9,NULL,NULL,P,NULL,1514
1447106323,a9627f0f32eaf2d907dae5c35f2b5fd4,Trial,41,0,t_sp_10,NULL,NULL,T,NULL,1091
1447106323,a9627f0f32eaf2d907dae5c35f2b5fd4,Trial,36,0,t_b_18,NULL,NULL,T,NULL,791
1447106323,a9627f0f32eaf2d907dae5c35f2b5fd4,Trial,56,0,t_sp_11,NULL,NULL,T,NULL,827
1447106323,a9627f0f32eaf2d907dae5c35f2b5fd4,Trial,39,0,t_sp_8,NULL,NULL,T,NULL,851
1447106323,a9627f0f32eaf2d907dae5c35f2b5fd4,Trial,50,0,t_b_18,NULL,NULL,T,NULL,904
1447106323,a9627f0f32eaf2d907dae5c35f2b5fd4,Trial,45,0,t_b_7,NULL,NULL,P,NULL,991
1447106323,a9627f0f32eaf2d907dae5c35f2b5fd4,Trial,54,0,t_sp_9,NULL,NULL,T,NULL,909
1447106323,a9627f0f32eaf2d907dae5c35f2b5fd4,Trial,52,0,t_sp_7,NULL,NULL,P,NULL,1152
1447106323,a9627f0f32eaf2d907dae5c35f2b5fd4,Trial,38,0,t_sp_7,NULL,NULL,P,NULL,1036
1447106323,a9627f0f32eaf2d907dae5c35f2b5fd4,Trial,46,0,t_b_8,NULL,NULL,P,NULL,1165
1447106323,a9627f0f32eaf2d907dae5c35f2b5fd4,Trial,53,0,t_sp_8,NULL,NULL,P,NULL,1221
1447106323,a9627f0f32eaf2d907dae5c35f2b5fd4,Trial,42,0,t_sp_11,NULL,NULL,T,NULL,1254
1447106323,a9627f0f32eaf2d907dae5c35f2b5fd4,Trial,34,0,t_b_10,NULL,NULL,T,NULL,1277
1447106323,a9627f0f32eaf2d907dae5c35f2b5fd4,Trial,40,0,t_sp_9,NULL,NULL,T,NULL,962
1447106323,a9627f0f32eaf2d907dae5c35f2b5fd4,Trial,53,0,t_sp_8,NULL,NULL,T,NULL,1534
1447106323,a9627f0f32eaf2d907dae5c35f2b5fd4,Trial,57,0,t_sp_18,NULL,NULL,T,NULL,870
1447106323,a9627f0f32eaf2d907dae5c35f2b5fd4,Trial,40,0,t_sp_9,NULL,NULL,T,NULL,1042
1447106323,a9627f0f32eaf2d907dae5c35f2b5fd4,Trial,38,0,t_sp_7,NULL,NULL,P,NULL,1276
1447106323,a9627f0f32eaf2d907dae5c35f2b5fd4,Trial,52,0,t_sp_7,NULL,NULL,P,NULL,975
1447106323,a9627f0f32eaf2d907dae5c35f2b5fd4,Trial,41,0,t_sp_10,NULL,NULL,P,NULL,1457
1447106323,a9627f0f32eaf2d907dae5c35f2b5fd4,Trial,39,0,t_sp_8,NULL,NULL,P,NULL,1211
1447106323,a9627f0f32eaf2d907dae5c35f2b5fd4,Trial,42,0,t_sp_11,NULL,NULL,P,NULL,2090
1447106323,a9627f0f32eaf2d907dae5c35f2b5fd4,Trial,33,0,t_b_9,NULL,NULL,P,NULL,1460
1447106323,a9627f0f32eaf2d907dae5c35f2b5fd4,Trial,30,0,t_b_1,NULL,NULL,P,NULL,903
1447106323,a9627f0f32eaf2d907dae5c35f2b5fd4,Trial,51,0,t_sp_1,NULL,NULL,P,NULL,1387
1447106323,a9627f0f32eaf2d907dae5c35f2b5fd4,Trial,35,0,t_b_11,NULL,NULL,T,NULL,1413
1447106323,a9627f0f32eaf2d907dae5c35f2b5fd4,Trial,56,0,t_sp_11,NULL,NULL,T,NULL,975
1447106323,a9627f0f32eaf2d907dae5c35f2b5fd4,Trial,36,0,t_b_18,NULL,NULL,T,NULL,832
1447106323,a9627f0f32eaf2d907dae5c35f2b5fd4,Trial,55,0,t_sp_10,NULL,NULL,T,NULL,1030
1447106323,a9627f0f32eaf2d907dae5c35f2b5fd4,Trial,49,0,t_b_11,NULL,NULL,T,NULL,1868
1447106323,a9627f0f32eaf2d907dae5c35f2b5fd4,Trial,47,0,t_b_9,NULL,NULL,P,NULL,1078
1447106323,a9627f0f32eaf2d907dae5c35f2b5fd4,Trial,54,0,t_sp_9,NULL,NULL,P,NULL,1549
1447106323,a9627f0f32eaf2d907dae5c35f2b5fd4,Trial,31,0,t_b_7,NULL,NULL,P,NULL,925
1447106323,a9627f0f32eaf2d907dae5c35f2b5fd4,Trial,46,0,t_b_8,NULL,NULL,P,NULL,925
1447106323,a9627f0f32eaf2d907dae5c35f2b5fd4,Trial,44,0,t_b_1,NULL,NULL,P,NULL,1082
1447106323,a9627f0f32eaf2d907dae5c35f2b5fd4,Trial,34,0,t_b_10,NULL,NULL,T,NULL,1215
1447106323,a9627f0f32eaf2d907dae5c35f2b5fd4,Trial,32,0,t_b_8,NULL,NULL,P,NULL,1144
1447106323,a9627f0f32eaf2d907dae5c35f2b5fd4,Trial,45,0,t_b_7,NULL,NULL,P,NULL,775
1447106323,a9627f0f32eaf2d907dae5c35f2b5fd4,Trial,37,0,t_sp_1,NULL,NULL,P,NULL,1212
1447106323,a9627f0f32eaf2d907dae5c35f2b5fd4,Trial,43,0,t_sp_18,NULL,NULL,T,NULL,1134
1447106323,a9627f0f32eaf2d907dae5c35f2b5fd4,Trial,48,0,t_b_10,NULL,NULL,T,NULL,1138
1447106323,a9627f0f32eaf2d907dae5c35f2b5fd4,Trial,50,0,t_b_18,NULL,NULL,T,NULL,778
1447106323,a9627f0f32eaf2d907dae5c35f2b5fd4,Trial,47,0,t_b_9,NULL,NULL,P,NULL,1135
1447106323,a9627f0f32eaf2d907dae5c35f2b5fd4,Trial,34,0,t_b_10,NULL,NULL,T,NULL,1095
1447106323,a9627f0f32eaf2d907dae5c35f2b5fd4,Trial,56,0,t_sp_11,NULL,NULL,T,NULL,991
1447106323,a9627f0f32eaf2d907dae5c35f2b5fd4,Trial,45,0,t_b_7,NULL,NULL,T,NULL,1761
1447106323,a9627f0f32eaf2d907dae5c35f2b5fd4,Trial,36,0,t_b_18,NULL,NULL,T,NULL,1049
1447106323,a9627f0f32eaf2d907dae5c35f2b5fd4,Trial,35,0,t_b_11,NULL,NULL,T,NULL,971
1447106323,a9627f0f32eaf2d907dae5c35f2b5fd4,Trial,37,0,t_sp_1,NULL,NULL,P,NULL,1409
1447106323,a9627f0f32eaf2d907dae5c35f2b5fd4,Trial,50,0,t_b_18,NULL,NULL,T,NULL,1270
1447106323,a9627f0f32eaf2d907dae5c35f2b5fd4,Trial,49,0,t_b_11,NULL,NULL,T,NULL,989
1447106323,a9627f0f32eaf2d907dae5c35f2b5fd4,Trial,54,0,t_sp_9,NULL,NULL,P,NULL,1979
1447106323,a9627f0f32eaf2d907dae5c35f2b5fd4,Trial,44,0,t_b_1,NULL,NULL,P,NULL,1052
1447106323,a9627f0f32eaf2d907dae5c35f2b5fd4,Trial,41,0,t_sp_10,NULL,NULL,T,NULL,984
1447106323,a9627f0f32eaf2d907dae5c35f2b5fd4,Trial,46,0,t_b_8,NULL,NULL,P,NULL,907
1447106323,a9627f0f32eaf2d907dae5c35f2b5fd4,Trial,57,0,t_sp_18,NULL,NULL,T,NULL,1035
1447106323,a9627f0f32eaf2d907dae5c35f2b5fd4,Trial,43,0,t_sp_18,NULL,NULL,T,NULL,971
1447106323,a9627f0f32eaf2d907dae5c35f2b5fd4,Trial,33,0,t_b_9,NULL,NULL,P,NULL,876
1447106323,a9627f0f32eaf2d907dae5c35f2b5fd4,Trial,51,0,t_sp_1,NULL,NULL,P,NULL,1345
1447106323,a9627f0f32eaf2d907dae5c35f2b5fd4,Trial,53,0,t_sp_8,NULL,NULL,P,NULL,1334
1447106323,a9627f0f32eaf2d907dae5c35f2b5fd4,Trial,40,0,t_sp_9,NULL,NULL,P,NULL,1203
1447106323,a9627f0f32eaf2d907dae5c35f2b5fd4,Trial,52,0,t_sp_7,NULL,NULL,P,NULL,1512
1447106323,a9627f0f32eaf2d907dae5c35f2b5fd4,Trial,31,0,t_b_7,NULL,NULL,P,NULL,1275
1447106323,a9627f0f32eaf2d907dae5c35f2b5fd4,Trial,30,0,t_b_1,NULL,NULL,P,NULL,906
1447106323,a9627f0f32eaf2d907dae5c35f2b5fd4,Trial,32,0,t_b_8,NULL,NULL,P,NULL,1146
1447106323,a9627f0f32eaf2d907dae5c35f2b5fd4,Trial,48,0,t_b_10,NULL,NULL,T,NULL,1770
1447106323,a9627f0f32eaf2d907dae5c35f2b5fd4,Trial,42,0,t_sp_11,NULL,NULL,T,NULL,1031
1447106323,a9627f0f32eaf2d907dae5c35f2b5fd4,Trial,39,0,t_sp_8,NULL,NULL,P,NULL,1269
1447106323,a9627f0f32eaf2d907dae5c35f2b5fd4,Trial,38,0,t_sp_7,NULL,NULL,T,NULL,902
1447106323,a9627f0f32eaf2d907dae5c35f2b5fd4,Trial,55,0,t_sp_10,NULL,NULL,T,NULL,923
1447106323,a9627f0f32eaf2d907dae5c35f2b5fd4,Trial,39,0,t_sp_8,NULL,NULL,P,NULL,1320
1447106323,a9627f0f32eaf2d907dae5c35f2b5fd4,Trial,44,0,t_b_1,NULL,NULL,P,NULL,825
1447106323,a9627f0f32eaf2d907dae5c35f2b5fd4,Trial,48,0,t_b_10,NULL,NULL,P,NULL,1097
1447106323,a9627f0f32eaf2d907dae5c35f2b5fd4,Trial,43,0,t_sp_18,NULL,NULL,T,NULL,1225
1447106323,a9627f0f32eaf2d907dae5c35f2b5fd4,Trial,37,0,t_sp_1,NULL,NULL,P,NULL,1228
1447106323,a9627f0f32eaf2d907dae5c35f2b5fd4,Trial,55,0,t_sp_10,NULL,NULL,P,NULL,2526
1447106323,a9627f0f32eaf2d907dae5c35f2b5fd4,Trial,49,0,t_b_11,NULL,NULL,P,NULL,1449
1447106323,a9627f0f32eaf2d907dae5c35f2b5fd4,Trial,32,0,t_b_8,NULL,NULL,P,NULL,1174
1447106323,a9627f0f32eaf2d907dae5c35f2b5fd4,Trial,42,0,t_sp_11,NULL,NULL,T,NULL,1236
1447106323,a9627f0f32eaf2d907dae5c35f2b5fd4,Trial,45,0,t_b_7,NULL,NULL,P,NULL,948
1447106323,a9627f0f32eaf2d907dae5c35f2b5fd4,Trial,57,0,t_sp_18,NULL,NULL,T,NULL,1104
1447106323,a9627f0f32eaf2d907dae5c35f2b5fd4,Trial,56,0,t_sp_11,NULL,NULL,T,NULL,1052
1447106323,a9627f0f32eaf2d907dae5c35f2b5fd4,Trial,38,0,t_sp_7,NULL,NULL,T,NULL,989
1447106323,a9627f0f32eaf2d907dae5c35f2b5fd4,Trial,30,0,t_b_1,NULL,NULL,P,NULL,1007
1447106323,a9627f0f32eaf2d907dae5c35f2b5fd4,Trial,33,0,t_b_9,NULL,NULL,T,NULL,1751
1447106323,a9627f0f32eaf2d907dae5c35f2b5fd4,Trial,34,0,t_b_10,NULL,NULL,T,NULL,997
1447106323,a9627f0f32eaf2d907dae5c35f2b5fd4,Trial,50,0,t_b_18,NULL,NULL,T,NULL,1049
1447106323,a9627f0f32eaf2d907dae5c35f2b5fd4,Trial,54,0,t_sp_9,NULL,NULL,T,NULL,1031
1447106323,a9627f0f32eaf2d907dae5c35f2b5fd4,Trial,51,0,t_sp_1,NULL,NULL,P,NULL,1466
1447106323,a9627f0f32eaf2d907dae5c35f2b5fd4,Trial,35,0,t_b_11,NULL,NULL,T,NULL,1442
1447106323,a9627f0f32eaf2d907dae5c35f2b5fd4,Trial,53,0,t_sp_8,NULL,NULL,T,NULL,1074
1447106323,a9627f0f32eaf2d907dae5c35f2b5fd4,Trial,40,0,t_sp_9,NULL,NULL,T,NULL,1656
1447106323,a9627f0f32eaf2d907dae5c35f2b5fd4,Trial,46,0,t_b_8,NULL,NULL,P,NULL,994
1447106323,a9627f0f32eaf2d907dae5c35f2b5fd4,Trial,52,0,t_sp_7,NULL,NULL,P,NULL,1282
1447106323,a9627f0f32eaf2d907dae5c35f2b5fd4,Trial,41,0,t_sp_10,NULL,NULL,P,NULL,1392
1447106323,a9627f0f32eaf2d907dae5c35f2b5fd4,Trial,36,0,t_b_18,NULL,NULL,T,NULL,1195
1447106323,a9627f0f32eaf2d907dae5c35f2b5fd4,Trial,31,0,t_b_7,NULL,NULL,P,NULL,1020
1447106323,a9627f0f32eaf2d907dae5c35f2b5fd4,Trial,47,0,t_b_9,NULL,NULL,P,NULL,924
1447106323,a9627f0f32eaf2d907dae5c35f2b5fd4,Trial,49,0,t_b_11,NULL,NULL,P,NULL,884
1447106323,a9627f0f32eaf2d907dae5c35f2b5fd4,Trial,32,0,t_b_8,NULL,NULL,P,NULL,1185
1447106323,a9627f0f32eaf2d907dae5c35f2b5fd4,Trial,57,0,t_sp_18,NULL,NULL,T,NULL,1324
1447106323,a9627f0f32eaf2d907dae5c35f2b5fd4,Trial,51,0,t_sp_1,NULL,NULL,T,NULL,1266
1447106323,a9627f0f32eaf2d907dae5c35f2b5fd4,Trial,38,0,t_sp_7,NULL,NULL,P,NULL,1117
1447106323,a9627f0f32eaf2d907dae5c35f2b5fd4,Trial,53,0,t_sp_8,NULL,NULL,P,NULL,958
1447106323,a9627f0f32eaf2d907dae5c35f2b5fd4,Trial,36,0,t_b_18,NULL,NULL,T,NULL,1221
1447106323,a9627f0f32eaf2d907dae5c35f2b5fd4,Trial,48,0,t_b_10,NULL,NULL,T,NULL,955
1447106323,a9627f0f32eaf2d907dae5c35f2b5fd4,Trial,43,0,t_sp_18,NULL,NULL,T,NULL,1082
1447106323,a9627f0f32eaf2d907dae5c35f2b5fd4,Trial,54,0,t_sp_9,NULL,NULL,P,NULL,1258
1447106323,a9627f0f32eaf2d907dae5c35f2b5fd4,Trial,31,0,t_b_7,NULL,NULL,P,NULL,1274
1447106323,a9627f0f32eaf2d907dae5c35f2b5fd4,Trial,52,0,t_sp_7,NULL,NULL,P,NULL,1208
1447106323,a9627f0f32eaf2d907dae5c35f2b5fd4,Trial,30,0,t_b_1,NULL,NULL,P,NULL,1200
1447106323,a9627f0f32eaf2d907dae5c35f2b5fd4,Trial,44,0,t_b_1,NULL,NULL,P,NULL,1020
1447106323,a9627f0f32eaf2d907dae5c35f2b5fd4,Trial,35,0,t_b_11,NULL,NULL,P,NULL,1044
1447106323,a9627f0f32eaf2d907dae5c35f2b5fd4,Trial,40,0,t_sp_9,NULL,NULL,P,NULL,1642
1447106323,a9627f0f32eaf2d907dae5c35f2b5fd4,Trial,46,0,t_b_8,NULL,NULL,P,NULL,795
1447106323,a9627f0f32eaf2d907dae5c35f2b5fd4,Trial,47,0,t_b_9,NULL,NULL,P,NULL,872
1447106323,a9627f0f32eaf2d907dae5c35f2b5fd4,Trial,50,0,t_b_18,NULL,NULL,T,NULL,1573
1447106323,a9627f0f32eaf2d907dae5c35f2b5fd4,Trial,41,0,t_sp_10,NULL,NULL,T,NULL,1031
1447106323,a9627f0f32eaf2d907dae5c35f2b5fd4,Trial,33,0,t_b_9,NULL,NULL,T,NULL,1186
1447106323,a9627f0f32eaf2d907dae5c35f2b5fd4,Trial,42,0,t_sp_11,NULL,NULL,T,NULL,1067
1447106323,a9627f0f32eaf2d907dae5c35f2b5fd4,Trial,55,0,t_sp_10,NULL,NULL,T,NULL,966
1447106323,a9627f0f32eaf2d907dae5c35f2b5fd4,Trial,37,0,t_sp_1,NULL,NULL,P,NULL,1259
1447106323,a9627f0f32eaf2d907dae5c35f2b5fd4,Trial,34,0,t_b_10,NULL,NULL,T,NULL,1193
1447106323,a9627f0f32eaf2d907dae5c35f2b5fd4,Trial,39,0,t_sp_8,NULL,NULL,P,NULL,1514
1447106323,a9627f0f32eaf2d907dae5c35f2b5fd4,Trial,56,0,t_sp_11,NULL,NULL,P,NULL,1149
1447106323,a9627f0f32eaf2d907dae5c35f2b5fd4,Trial,45,0,t_b_7,NULL,NULL,P,NULL,1403
1447106323,a9627f0f32eaf2d907dae5c35f2b5fd4,Trial,39,0,t_sp_8,NULL,NULL,P,NULL,1121
1447106323,a9627f0f32eaf2d907dae5c35f2b5fd4,Trial,44,0,t_b_1,NULL,NULL,P,NULL,985
1447106323,a9627f0f32eaf2d907dae5c35f2b5fd4,Trial,46,0,t_b_8,NULL,NULL,P,NULL,854
1447106323,a9627f0f32eaf2d907dae5c35f2b5fd4,Trial,41,0,t_sp_10,NULL,NULL,P,NULL,1308
1447106323,a9627f0f32eaf2d907dae5c35f2b5fd4,Trial,33,0,t_b_9,NULL,NULL,P,NULL,995
1447106323,a9627f0f32eaf2d907dae5c35f2b5fd4,Trial,57,0,t_sp_18,NULL,NULL,P,NULL,1405
1447106323,a9627f0f32eaf2d907dae5c35f2b5fd4,Trial,30,0,t_b_1,NULL,NULL,P,NULL,1003
1447106323,a9627f0f32eaf2d907dae5c35f2b5fd4,Trial,36,0,t_b_18,NULL,NULL,T,NULL,1134
1447106323,a9627f0f32eaf2d907dae5c35f2b5fd4,Trial,31,0,t_b_7,NULL,NULL,P,NULL,925
1447106323,a9627f0f32eaf2d907dae5c35f2b5fd4,Trial,51,0,t_sp_1,NULL,NULL,P,NULL,1139
1447106323,a9627f0f32eaf2d907dae5c35f2b5fd4,Trial,50,0,t_b_18,NULL,NULL,T,NULL,994
1447106323,a9627f0f32eaf2d907dae5c35f2b5fd4,Trial,40,0,t_sp_9,NULL,NULL,T,NULL,2096
1447106323,a9627f0f32eaf2d907dae5c35f2b5fd4,Trial,42,0,t_sp_11,NULL,NULL,T,NULL,967
1447106323,a9627f0f32eaf2d907dae5c35f2b5fd4,Trial,38,0,t_sp_7,NULL,NULL,P,NULL,1286
1447106323,a9627f0f32eaf2d907dae5c35f2b5fd4,Trial,43,0,t_sp_18,NULL,NULL,T,NULL,898
1447106323,a9627f0f32eaf2d907dae5c35f2b5fd4,Trial,37,0,t_sp_1,NULL,NULL,P,NULL,1344
1447106323,a9627f0f32eaf2d907dae5c35f2b5fd4,Trial,47,0,t_b_9,NULL,NULL,T,NULL,988
1447106323,a9627f0f32eaf2d907dae5c35f2b5fd4,Trial,55,0,t_sp_10,NULL,NULL,P,NULL,1472
1447106323,a9627f0f32eaf2d907dae5c35f2b5fd4,Trial,56,0,t_sp_11,NULL,NULL,P,NULL,1552
1447106323,a9627f0f32eaf2d907dae5c35f2b5fd4,Trial,34,0,t_b_10,NULL,NULL,P,NULL,1316
1447106323,a9627f0f32eaf2d907dae5c35f2b5fd4,Trial,49,0,t_b_11,NULL,NULL,T,NULL,1218
1447106323,a9627f0f32eaf2d907dae5c35f2b5fd4,Trial,45,0,t_b_7,NULL,NULL,P,NULL,936
1447106323,a9627f0f32eaf2d907dae5c35f2b5fd4,Trial,32,0,t_b_8,NULL,NULL,P,NULL,1975
1447106323,a9627f0f32eaf2d907dae5c35f2b5fd4,Trial,53,0,t_sp_8,NULL,NULL,T,NULL,1293
1447106323,a9627f0f32eaf2d907dae5c35f2b5fd4,Trial,48,0,t_b_10,NULL,NULL,T,NULL,1947
1447106323,a9627f0f32eaf2d907dae5c35f2b5fd4,Trial,52,0,t_sp_7,NULL,NULL,T,NULL,1173
1447106323,a9627f0f32eaf2d907dae5c35f2b5fd4,Trial,54,0,t_sp_9,NULL,NULL,T,NULL,993
1447106323,a9627f0f32eaf2d907dae5c35f2b5fd4,Trial,35,0,t_b_11,NULL,NULL,T,NULL,1487
1447106323,a9627f0f32eaf2d907dae5c35f2b5fd4,Trial,35,0,t_b_11,NULL,NULL,P,NULL,1620
1447106323,a9627f0f32eaf2d907dae5c35f2b5fd4,Trial,46,0,t_b_8,NULL,NULL,P,NULL,1062
1447106323,a9627f0f32eaf2d907dae5c35f2b5fd4,Trial,48,0,t_b_10,NULL,NULL,P,NULL,1070
1447106323,a9627f0f32eaf2d907dae5c35f2b5fd4,Trial,32,0,t_b_8,NULL,NULL,P,NULL,1078
1447106323,a9627f0f32eaf2d907dae5c35f2b5fd4,Trial,55,0,t_sp_10,NULL,NULL,T,NULL,997
1447106323,a9627f0f32eaf2d907dae5c35f2b5fd4,Trial,56,0,t_sp_11,NULL,NULL,T,NULL,833
1447106323,a9627f0f32eaf2d907dae5c35f2b5fd4,Trial,34,0,t_b_10,NULL,NULL,T,NULL,1386
1447106323,a9627f0f32eaf2d907dae5c35f2b5fd4,Trial,41,0,t_sp_10,NULL,NULL,T,NULL,1124
1447106323,a9627f0f32eaf2d907dae5c35f2b5fd4,Trial,31,0,t_b_7,NULL,NULL,T,NULL,943
1447106323,a9627f0f32eaf2d907dae5c35f2b5fd4,Trial,51,0,t_sp_1,NULL,NULL,T,NULL,1038
1447106323,a9627f0f32eaf2d907dae5c35f2b5fd4,Trial,30,0,t_b_1,NULL,NULL,P,NULL,1549
1447106323,a9627f0f32eaf2d907dae5c35f2b5fd4,Trial,57,0,t_sp_18,NULL,NULL,T,NULL,1145
1447106323,a9627f0f32eaf2d907dae5c35f2b5fd4,Trial,45,0,t_b_7,NULL,NULL,P,NULL,949
1447106323,a9627f0f32eaf2d907dae5c35f2b5fd4,Trial,47,0,t_b_9,NULL,NULL,P,NULL,1428
1447106323,a9627f0f32eaf2d907dae5c35f2b5fd4,Trial,53,0,t_sp_8,NULL,NULL,T,NULL,981
1447106323,a9627f0f32eaf2d907dae5c35f2b5fd4,Trial,36,0,t_b_18,NULL,NULL,T,NULL,1383
1447106323,a9627f0f32eaf2d907dae5c35f2b5fd4,Trial,49,0,t_b_11,NULL,NULL,T,NULL,926
1447106323,a9627f0f32eaf2d907dae5c35f2b5fd4,Trial,50,0,t_b_18,NULL,NULL,T,NULL,947
1447106323,a9627f0f32eaf2d907dae5c35f2b5fd4,Trial,44,0,t_b_1,NULL,NULL,P,NULL,1072
1447106323,a9627f0f32eaf2d907dae5c35f2b5fd4,Trial,33,0,t_b_9,NULL,NULL,P,NULL,1114
1447106323,a9627f0f32eaf2d907dae5c35f2b5fd4,Trial,43,0,t_sp_18,NULL,NULL,T,NULL,2322
1447106323,a9627f0f32eaf2d907dae5c35f2b5fd4,Trial,40,0,t_sp_9,NULL,NULL,T,NULL,966
1447106323,a9627f0f32eaf2d907dae5c35f2b5fd4,Trial,54,0,t_sp_9,NULL,NULL,T,NULL,875
1447106323,a9627f0f32eaf2d907dae5c35f2b5fd4,Trial,52,0,t_sp_7,NULL,NULL,P,NULL,1467
1447106323,a9627f0f32eaf2d907dae5c35f2b5fd4,Trial,39,0,t_sp_8,NULL,NULL,P,NULL,920
1447106323,a9627f0f32eaf2d907dae5c35f2b5fd4,Trial,38,0,t_sp_7,NULL,NULL,P,NULL,1086
1447106323,a9627f0f32eaf2d907dae5c35f2b5fd4,Trial,42,0,t_sp_11,NULL,NULL,P,NULL,1000
1447106323,a9627f0f32eaf2d907dae5c35f2b5fd4,Trial,37,0,t_sp_1,NULL,NULL,P,NULL,1030
1447106323,a9627f0f32eaf2d907dae5c35f2b5fd4,Trial,35,0,t_b_11,NULL,NULL,T,NULL,1137
1447106323,a9627f0f32eaf2d907dae5c35f2b5fd4,Trial,43,0,t_sp_18,NULL,NULL,T,NULL,1505
1447106323,a9627f0f32eaf2d907dae5c35f2b5fd4,Trial,53,0,t_sp_8,NULL,NULL,T,NULL,1677
1447106323,a9627f0f32eaf2d907dae5c35f2b5fd4,Trial,38,0,t_sp_7,NULL,NULL,P,NULL,1354
1447106323,a9627f0f32eaf2d907dae5c35f2b5fd4,Trial,57,0,t_sp_18,NULL,NULL,T,NULL,1355
1447106323,a9627f0f32eaf2d907dae5c35f2b5fd4,Trial,45,0,t_b_7,NULL,NULL,T,NULL,1622
1447106323,a9627f0f32eaf2d907dae5c35f2b5fd4,Trial,49,0,t_b_11,NULL,NULL,T,NULL,1099
1447106323,a9627f0f32eaf2d907dae5c35f2b5fd4,Trial,46,0,t_b_8,NULL,NULL,P,NULL,1124
1447106323,a9627f0f32eaf2d907dae5c35f2b5fd4,Trial,56,0,t_sp_11,NULL,NULL,P,NULL,1158
1447106323,a9627f0f32eaf2d907dae5c35f2b5fd4,Trial,34,0,t_b_10,NULL,NULL,P,NULL,1192
1447106323,a9627f0f32eaf2d907dae5c35f2b5fd4,Trial,50,0,t_b_18,NULL,NULL,T,NULL,1049
1447106323,a9627f0f32eaf2d907dae5c35f2b5fd4,Trial,30,0,t_b_1,NULL,NULL,P,NULL,972
1447106323,a9627f0f32eaf2d907dae5c35f2b5fd4,Trial,54,0,t_sp_9,NULL,NULL,P,NULL,1620
1447106323,a9627f0f32eaf2d907dae5c35f2b5fd4,Trial,52,0,t_sp_7,NULL,NULL,P,NULL,1164
1447106323,a9627f0f32eaf2d907dae5c35f2b5fd4,Trial,32,0,t_b_8,NULL,NULL,P,NULL,1083
1447106323,a9627f0f32eaf2d907dae5c35f2b5fd4,Trial,51,0,t_sp_1,NULL,NULL,P,NULL,1248
1447106323,a9627f0f32eaf2d907dae5c35f2b5fd4,Trial,33,0,t_b_9,NULL,NULL,T,NULL,2411
1447106323,a9627f0f32eaf2d907dae5c35f2b5fd4,Trial,36,0,t_b_18,NULL,NULL,T,NULL,2203
1447106323,a9627f0f32eaf2d907dae5c35f2b5fd4,Trial,37,0,t_sp_1,NULL,NULL,P,NULL,1191
1447106323,a9627f0f32eaf2d907dae5c35f2b5fd4,Trial,42,0,t_sp_11,NULL,NULL,T,NULL,1156
1447106323,a9627f0f32eaf2d907dae5c35f2b5fd4,Trial,39,0,t_sp_8,NULL,NULL,P,NULL,1161
1447106323,a9627f0f32eaf2d907dae5c35f2b5fd4,Trial,41,0,t_sp_10,NULL,NULL,P,NULL,909
1447106323,a9627f0f32eaf2d907dae5c35f2b5fd4,Trial,40,0,t_sp_9,NULL,NULL,P,NULL,1347
1447106323,a9627f0f32eaf2d907dae5c35f2b5fd4,Trial,44,0,t_b_1,NULL,NULL,P,NULL,983
1447106323,a9627f0f32eaf2d907dae5c35f2b5fd4,Trial,55,0,t_sp_10,NULL,NULL,T,NULL,1215
1447106323,a9627f0f32eaf2d907dae5c35f2b5fd4,Trial,31,0,t_b_7,NULL,NULL,P,NULL,1200
1447106323,a9627f0f32eaf2d907dae5c35f2b5fd4,Trial,48,0,t_b_10,NULL,NULL,T,NULL,979
1447106323,a9627f0f32eaf2d907dae5c35f2b5fd4,Trial,47,0,t_b_9,NULL,NULL,T,NULL,1087
1447106323,a9627f0f32eaf2d907dae5c35f2b5fd4,Trial,31,0,t_b_7,NULL,NULL,P,NULL,1040
1447106323,a9627f0f32eaf2d907dae5c35f2b5fd4,Trial,55,0,t_sp_10,NULL,NULL,T,NULL,1173
1447106323,a9627f0f32eaf2d907dae5c35f2b5fd4,Trial,52,0,t_sp_7,NULL,NULL,T,NULL,1240
1447106323,a9627f0f32eaf2d907dae5c35f2b5fd4,Trial,40,0,t_sp_9,NULL,NULL,T,NULL,1226
1447106323,a9627f0f32eaf2d907dae5c35f2b5fd4,Trial,34,0,t_b_10,NULL,NULL,T,NULL,1423
1447106323,a9627f0f32eaf2d907dae5c35f2b5fd4,Trial,37,0,t_sp_1,NULL,NULL,P,NULL,1275
1447106323,a9627f0f32eaf2d907dae5c35f2b5fd4,Trial,53,0,t_sp_8,NULL,NULL,P,NULL,1110
1447106323,a9627f0f32eaf2d907dae5c35f2b5fd4,Trial,35,0,t_b_11,NULL,NULL,T,NULL,971
1447106323,a9627f0f32eaf2d907dae5c35f2b5fd4,Trial,42,0,t_sp_11,NULL,NULL,P,NULL,1836
1447106323,a9627f0f32eaf2d907dae5c35f2b5fd4,Trial,47,0,t_b_9,NULL,NULL,P,NULL,1168
1447106323,a9627f0f32eaf2d907dae5c35f2b5fd4,Trial,50,0,t_b_18,NULL,NULL,T,NULL,900
1447106323,a9627f0f32eaf2d907dae5c35f2b5fd4,Trial,36,0,t_b_18,NULL,NULL,T,NULL,979
1447106323,a9627f0f32eaf2d907dae5c35f2b5fd4,Trial,41,0,t_sp_10,NULL,NULL,T,NULL,1465
1447106323,a9627f0f32eaf2d907dae5c35f2b5fd4,Trial,43,0,t_sp_18,NULL,NULL,T,NULL,933
1447106323,a9627f0f32eaf2d907dae5c35f2b5fd4,Trial,54,0,t_sp_9,NULL,NULL,T,NULL,1093
1447106323,a9627f0f32eaf2d907dae5c35f2b5fd4,Trial,38,0,t_sp_7,NULL,NULL,T,NULL,1057
1447106323,a9627f0f32eaf2d907dae5c35f2b5fd4,Trial,57,0,t_sp_18,NULL,NULL,T,NULL,985
1447106323,a9627f0f32eaf2d907dae5c35f2b5fd4,Trial,44,0,t_b_1,NULL,NULL,P,NULL,1295
1447106323,a9627f0f32eaf2d907dae5c35f2b5fd4,Trial,51,0,t_sp_1,NULL,NULL,P,NULL,2066
1447106323,a9627f0f32eaf2d907dae5c35f2b5fd4,Trial,33,0,t_b_9,NULL,NULL,T,NULL,1809
1447106323,a9627f0f32eaf2d907dae5c35f2b5fd4,Trial,49,0,t_b_11,NULL,NULL,T,NULL,832
1447106323,a9627f0f32eaf2d907dae5c35f2b5fd4,Trial,56,0,t_sp_11,NULL,NULL,T,NULL,1030
1447106323,a9627f0f32eaf2d907dae5c35f2b5fd4,Trial,48,0,t_b_10,NULL,NULL,T,NULL,1355
1447106323,a9627f0f32eaf2d907dae5c35f2b5fd4,Trial,45,0,t_b_7,NULL,NULL,P,NULL,1440
1447106323,a9627f0f32eaf2d907dae5c35f2b5fd4,Trial,32,0,t_b_8,NULL,NULL,P,NULL,864
1447106323,a9627f0f32eaf2d907dae5c35f2b5fd4,Trial,30,0,t_b_1,NULL,NULL,P,NULL,699
1447106323,a9627f0f32eaf2d907dae5c35f2b5fd4,Trial,39,0,t_sp_8,NULL,NULL,T,NULL,1221
1447106323,a9627f0f32eaf2d907dae5c35f2b5fd4,Trial,46,0,t_b_8,NULL,NULL,P,NULL,955
1447106323,a9627f0f32eaf2d907dae5c35f2b5fd4,Trial,30,0,t_b_1,NULL,NULL,P,NULL,940
1447106323,a9627f0f32eaf2d907dae5c35f2b5fd4,Trial,56,0,t_sp_11,NULL,NULL,T,NULL,928
1447106323,a9627f0f32eaf2d907dae5c35f2b5fd4,Trial,52,0,t_sp_7,NULL,NULL,T,NULL,1908
1447106323,a9627f0f32eaf2d907dae5c35f2b5fd4,Trial,50,0,t_b_18,NULL,NULL,T,NULL,1062
1447106323,a9627f0f32eaf2d907dae5c35f2b5fd4,Trial,53,0,t_sp_8,NULL,NULL,P,NULL,1398
1447106323,a9627f0f32eaf2d907dae5c35f2b5fd4,Trial,39,0,t_sp_8,NULL,NULL,T,NULL,1125
1447106323,a9627f0f32eaf2d907dae5c35f2b5fd4,Trial,57,0,t_sp_18,NULL,NULL,T,NULL,1007
1447106323,a9627f0f32eaf2d907dae5c35f2b5fd4,Trial,46,0,t_b_8,NULL,NULL,P,NULL,1024
1447106323,a9627f0f32eaf2d907dae5c35f2b5fd4,Trial,49,0,t_b_11,NULL,NULL,T,NULL,1218
1447106323,a9627f0f32eaf2d907dae5c35f2b5fd4,Trial,35,0,t_b_11,NULL,NULL,T,NULL,871
1447106323,a9627f0f32eaf2d907dae5c35f2b5fd4,Trial,51,0,t_sp_1,NULL,NULL,P,NULL,1649
1447106323,a9627f0f32eaf2d907dae5c35f2b5fd4,Trial,32,0,t_b_8,NULL,NULL,T,NULL,1358
1447106323,a9627f0f32eaf2d907dae5c35f2b5fd4,Trial,55,0,t_sp_10,NULL,NULL,T,NULL,1382
1447106323,a9627f0f32eaf2d907dae5c35f2b5fd4,Trial,43,0,t_sp_18,NULL,NULL,T,NULL,885
1447106323,a9627f0f32eaf2d907dae5c35f2b5fd4,Trial,38,0,t_sp_7,NULL,NULL,T,NULL,757
1447106323,a9627f0f32eaf2d907dae5c35f2b5fd4,Trial,34,0,t_b_10,NULL,NULL,T,NULL,1279
1447106323,a9627f0f32eaf2d907dae5c35f2b5fd4,Trial,48,0,t_b_10,NULL,NULL,T,NULL,1178
1447106323,a9627f0f32eaf2d907dae5c35f2b5fd4,Trial,40,0,t_sp_9,NULL,NULL,T,NULL,1291
1447106323,a9627f0f32eaf2d907dae5c35f2b5fd4,Trial,41,0,t_sp_10,NULL,NULL,T,NULL,1356
1447106323,a9627f0f32eaf2d907dae5c35f2b5fd4,Trial,47,0,t_b_9,NULL,NULL,T,NULL,1212
1447106323,a9627f0f32eaf2d907dae5c35f2b5fd4,Trial,37,0,t_sp_1,NULL,NULL,T,NULL,1185
1447106323,a9627f0f32eaf2d907dae5c35f2b5fd4,Trial,33,0,t_b_9,NULL,NULL,P,NULL,1034
1447106323,a9627f0f32eaf2d907dae5c35f2b5fd4,Trial,42,0,t_sp_11,NULL,NULL,T,NULL,1002
1447106323,a9627f0f32eaf2d907dae5c35f2b5fd4,Trial,36,0,t_b_18,NULL,NULL,T,NULL,867
1447106323,a9627f0f32eaf2d907dae5c35f2b5fd4,Trial,54,0,t_sp_9,NULL,NULL,T,NULL,1101
1447106323,a9627f0f32eaf2d907dae5c35f2b5fd4,Trial,45,0,t_b_7,NULL,NULL,P,NULL,1750
1447106323,a9627f0f32eaf2d907dae5c35f2b5fd4,Trial,31,0,t_b_7,NULL,NULL,T,NULL,1751
1447106323,a9627f0f32eaf2d907dae5c35f2b5fd4,Trial,44,0,t_b_1,NULL,NULL,P,NULL,1125
1447106323,a9627f0f32eaf2d907dae5c35f2b5fd4,Trial,49,0,t_b_11,NULL,NULL,T,NULL,1076
1447106323,a9627f0f32eaf2d907dae5c35f2b5fd4,Trial,52,0,t_sp_7,NULL,NULL,T,NULL,1315
1447106323,a9627f0f32eaf2d907dae5c35f2b5fd4,Trial,38,0,t_sp_7,NULL,NULL,T,NULL,1460
1447106323,a9627f0f32eaf2d907dae5c35f2b5fd4,Trial,45,0,t_b_7,NULL,NULL,T,NULL,1988
1447106323,a9627f0f32eaf2d907dae5c35f2b5fd4,Trial,42,0,t_sp_11,NULL,NULL,T,NULL,2008
1447106323,a9627f0f32eaf2d907dae5c35f2b5fd4,Trial,31,0,t_b_7,NULL,NULL,P,NULL,960
1447106323,a9627f0f32eaf2d907dae5c35f2b5fd4,Trial,47,0,t_b_9,NULL,NULL,P,NULL,750
1447106323,a9627f0f32eaf2d907dae5c35f2b5fd4,Trial,44,0,t_b_1,NULL,NULL,P,NULL,838
1447106323,a9627f0f32eaf2d907dae5c35f2b5fd4,Trial,48,0,t_b_10,NULL,NULL,P,NULL,921
1447106323,a9627f0f32eaf2d907dae5c35f2b5fd4,Trial,54,0,t_sp_9,NULL,NULL,T,NULL,1708
1447106323,a9627f0f32eaf2d907dae5c35f2b5fd4,Trial,56,0,t_sp_11,NULL,NULL,T,NULL,1042
1447106323,a9627f0f32eaf2d907dae5c35f2b5fd4,Trial,57,0,t_sp_18,NULL,NULL,T,NULL,1100
1447106323,a9627f0f32eaf2d907dae5c35f2b5fd4,Trial,32,0,t_b_8,NULL,NULL,P,NULL,1310
1447106323,a9627f0f32eaf2d907dae5c35f2b5fd4,Trial,37,0,t_sp_1,NULL,NULL,P,NULL,1336
1447106323,a9627f0f32eaf2d907dae5c35f2b5fd4,Trial,36,0,t_b_18,NULL,NULL,T,NULL,1325
1447106323,a9627f0f32eaf2d907dae5c35f2b5fd4,Trial,35,0,t_b_11,NULL,NULL,T,NULL,869
1447106323,a9627f0f32eaf2d907dae5c35f2b5fd4,Trial,39,0,t_sp_8,NULL,NULL,T,NULL,1082
1447106323,a9627f0f32eaf2d907dae5c35f2b5fd4,Trial,33,0,t_b_9,NULL,NULL,P,NULL,972
1447106323,a9627f0f32eaf2d907dae5c35f2b5fd4,Trial,43,0,t_sp_18,NULL,NULL,T,NULL,1108
1447106323,a9627f0f32eaf2d907dae5c35f2b5fd4,Trial,55,0,t_sp_10,NULL,NULL,T,NULL,870
1447106323,a9627f0f32eaf2d907dae5c35f2b5fd4,Trial,41,0,t_sp_10,NULL,NULL,P,NULL,1081
1447106323,a9627f0f32eaf2d907dae5c35f2b5fd4,Trial,34,0,t_b_10,NULL,NULL,P,NULL,905
1447106323,a9627f0f32eaf2d907dae5c35f2b5fd4,Trial,50,0,t_b_18,NULL,NULL,T,NULL,1187
1447106323,a9627f0f32eaf2d907dae5c35f2b5fd4,Trial,46,0,t_b_8,NULL,NULL,P,NULL,964
1447106323,a9627f0f32eaf2d907dae5c35f2b5fd4,Trial,51,0,t_sp_1,NULL,NULL,P,NULL,1536
1447106323,a9627f0f32eaf2d907dae5c35f2b5fd4,Trial,30,0,t_b_1,NULL,NULL,P,NULL,879
1447106323,a9627f0f32eaf2d907dae5c35f2b5fd4,Trial,40,0,t_sp_9,NULL,NULL,T,NULL,1256
1447106323,a9627f0f32eaf2d907dae5c35f2b5fd4,Trial,53,0,t_sp_8,NULL,NULL,P,NULL,1471
# Columns below this comment are as follows:
# 1. Time results were received.
# 2. MD5 hash of participant's IP address.
# 3. Controller name.
# 4. Item number.
# 5. Element number.
# 6. Type.
# 7. Group.
# 8. Field name.
# 9. Field value.
1447106323,a9627f0f32eaf2d907dae5c35f2b5fd4,Form,17,0,debrief,NULL,comments,At the end%2C it was almost indistinguishable.
1447106323,a9627f0f32eaf2d907dae5c35f2b5fd4,Form,17,0,debrief,NULL,_REACTION_TIME_,22156
1447106323,a9627f0f32eaf2d907dae5c35f2b5fd4,Form,18,0,exit2,NULL,randomfield,e05MlxX5
1447106323,a9627f0f32eaf2d907dae5c35f2b5fd4,Form,18,0,exit2,NULL,worker_id,A21L6JDGNHR0NJ
1447106323,a9627f0f32eaf2d907dae5c35f2b5fd4,Form,18,0,exit2,NULL,identifier,e05MlxX5
1447106323,a9627f0f32eaf2d907dae5c35f2b5fd4,Form,18,0,exit2,NULL,_REACTION_TIME_,24100
#
# Results on Monday November 09 2015 22:02:01 UTC.
# USER AGENT: Mozilla/5.0 (Windows NT 6.3; WOW64) AppleWebKit/537.36 (KHTML, like Gecko) Chrome/46.0.2490.80 Safari/537.36
# Design number was non-random = 0
#
# Columns below this comment are as follows:
# 1. Time results were received.
# 2. MD5 hash of participant's IP address.
# 3. Controller name.
# 4. Item number.
# 5. Element number.
# 6. Type.
# 7. Group.
# 8. Field name.
# 9. Field value.
1447106521,f26949dde576660aefcfbc0c15fb0db6,Form,2,0,intro,NULL,consentanswer,ptP,T
1447106521,f26949dde576660aefcfbc0c15fb0db6,Form,2,0,intro,NULL,_REACTION_TIME_,8244
1447106521,f26949dde576660aefcfbc0c15fb0db6,Form,3,0,questionnaire,NULL,write_something,
1447106521,f26949dde576660aefcfbc0c15fb0db6,Form,3,0,questionnaire,NULL,NatLang,eng
1447106521,f26949dde576660aefcfbc0c15fb0db6,Form,3,0,questionnaire,NULL,disorder,disorderno
1447106521,f26949dde576660aefcfbc0c15fb0db6,Form,3,0,questionnaire,NULL,_REACTION_TIME_,15272
1447106521,f26949dde576660aefcfbc0c15fb0db6,Form,4,0,headphones,NULL,headphonebrand,aiwa
1447106521,f26949dde576660aefcfbc0c15fb0db6,Form,4,0,headphones,NULL,headphonemodel,Crosstrainer HP-M034
1447106521,f26949dde576660aefcfbc0c15fb0db6,Form,4,0,headphones,NULL,headphoneyesno,headphoneyes
1447106521,f26949dde576660aefcfbc0c15fb0db6,Form,4,0,headphones,NULL,_REACTION_TIME_,53419
# Columns below this comment are as follows:
# 1. Time results were received.
# 2. MD5 hash of participant's IP address.
# 3. Controller name.
# 4. Item number.
# 5. Element number.
# 6. Type.
# 7. Group.
# 8. Question (NULL if none).
# 9. Answer.
# 10. Whether or not answer was correct (NULL if N/A).
# 11. Time taken to answer.
1447106521,f26949dde576660aefcfbc0c15fb0db6,Trial,24,0,pnt_sp_1,NULL,&nbsp;&nbsp;&nbsp;&nbsp;click on the sound,P,NULL,8003
1447106521,f26949dde576660aefcfbc0c15fb0db6,Trial,25,0,pnt_sp_18,NULL,&nbsp;&nbsp;&nbsp;&nbsp;click on the sound,P,NULL,1928
1447106521,f26949dde576660aefcfbc0c15fb0db6,Trial,22,0,pnt_b_1,NULL,&nbsp;&nbsp;&nbsp;&nbsp;click on the sound,P,NULL,3669
1447106521,f26949dde576660aefcfbc0c15fb0db6,Trial,23,0,pnt_b_18,NULL,&nbsp;&nbsp;&nbsp;&nbsp;click on the sound,T,NULL,2019
1447106521,f26949dde576660aefcfbc0c15fb0db6,Trial,26,0,pto_sp_1,NULL,&nbsp;&nbsp;&nbsp;&nbsp;click on the sound,T,NULL,1734
1447106521,f26949dde576660aefcfbc0c15fb0db6,Trial,29,0,pto_b_18,NULL,&nbsp;&nbsp;&nbsp;&nbsp;click on the sound,T,NULL,1288
1447106521,f26949dde576660aefcfbc0c15fb0db6,Trial,28,0,pto_b_1,NULL,&nbsp;&nbsp;&nbsp;&nbsp;click on the sound,T,NULL,1393
1447106521,f26949dde576660aefcfbc0c15fb0db6,Trial,27,0,pto_sp_18,NULL,&nbsp;&nbsp;&nbsp;&nbsp;click on the sound,T,NULL,1021
1447106521,f26949dde576660aefcfbc0c15fb0db6,Trial,49,0,t_b_11,NULL,NULL,T,NULL,1619
1447106521,f26949dde576660aefcfbc0c15fb0db6,Trial,57,0,t_sp_18,NULL,NULL,T,NULL,1298
1447106521,f26949dde576660aefcfbc0c15fb0db6,Trial,55,0,t_sp_10,NULL,NULL,P,NULL,2105
1447106521,f26949dde576660aefcfbc0c15fb0db6,Trial,37,0,t_sp_1,NULL,NULL,T,NULL,1721
1447106521,f26949dde576660aefcfbc0c15fb0db6,Trial,36,0,t_b_18,NULL,NULL,T,NULL,1248
1447106521,f26949dde576660aefcfbc0c15fb0db6,Trial,51,0,t_sp_1,NULL,NULL,P,NULL,1171
1447106521,f26949dde576660aefcfbc0c15fb0db6,Trial,52,0,t_sp_7,NULL,NULL,P,NULL,1170
1447106521,f26949dde576660aefcfbc0c15fb0db6,Trial,43,0,t_sp_18,NULL,NULL,T,NULL,1380
1447106521,f26949dde576660aefcfbc0c15fb0db6,Trial,40,0,t_sp_9,NULL,NULL,P,NULL,1687
1447106521,f26949dde576660aefcfbc0c15fb0db6,Trial,32,0,t_b_8,NULL,NULL,P,NULL,1225
1447106521,f26949dde576660aefcfbc0c15fb0db6,Trial,54,0,t_sp_9,NULL,NULL,T,NULL,1247
1447106521,f26949dde576660aefcfbc0c15fb0db6,Trial,47,0,t_b_9,NULL,NULL,P,NULL,1203
1447106521,f26949dde576660aefcfbc0c15fb0db6,Trial,41,0,t_sp_10,NULL,NULL,P,NULL,1334
1447106521,f26949dde576660aefcfbc0c15fb0db6,Trial,39,0,t_sp_8,NULL,NULL,T,NULL,1371
1447106521,f26949dde576660aefcfbc0c15fb0db6,Trial,45,0,t_b_7,NULL,NULL,T,NULL,987
1447106521,f26949dde576660aefcfbc0c15fb0db6,Trial,38,0,t_sp_7,NULL,NULL,P,NULL,1021
1447106521,f26949dde576660aefcfbc0c15fb0db6,Trial,33,0,t_b_9,NULL,NULL,P,NULL,823
1447106521,f26949dde576660aefcfbc0c15fb0db6,Trial,30,0,t_b_1,NULL,NULL,P,NULL,1079
1447106521,f26949dde576660aefcfbc0c15fb0db6,Trial,31,0,t_b_7,NULL,NULL,P,NULL,971
1447106521,f26949dde576660aefcfbc0c15fb0db6,Trial,34,0,t_b_10,NULL,NULL,P,NULL,850
1447106521,f26949dde576660aefcfbc0c15fb0db6,Trial,42,0,t_sp_11,NULL,NULL,T,NULL,1672
1447106521,f26949dde576660aefcfbc0c15fb0db6,Trial,35,0,t_b_11,NULL,NULL,T,NULL,677
1447106521,f26949dde576660aefcfbc0c15fb0db6,Trial,44,0,t_b_1,NULL,NULL,T,NULL,676
1447106521,f26949dde576660aefcfbc0c15fb0db6,Trial,50,0,t_b_18,NULL,NULL,P,NULL,1303
1447106521,f26949dde576660aefcfbc0c15fb0db6,Trial,53,0,t_sp_8,NULL,NULL,T,NULL,1112
1447106521,f26949dde576660aefcfbc0c15fb0db6,Trial,46,0,t_b_8,NULL,NULL,P,NULL,1431
1447106521,f26949dde576660aefcfbc0c15fb0db6,Trial,56,0,t_sp_11,NULL,NULL,P,NULL,1319
1447106521,f26949dde576660aefcfbc0c15fb0db6,Trial,48,0,t_b_10,NULL,NULL,T,NULL,1065
1447106521,f26949dde576660aefcfbc0c15fb0db6,Trial,31,0,t_b_7,NULL,NULL,P,NULL,1054
1447106521,f26949dde576660aefcfbc0c15fb0db6,Trial,48,0,t_b_10,NULL,NULL,P,NULL,941
1447106521,f26949dde576660aefcfbc0c15fb0db6,Trial,57,0,t_sp_18,NULL,NULL,T,NULL,1250
1447106521,f26949dde576660aefcfbc0c15fb0db6,Trial,42,0,t_sp_11,NULL,NULL,P,NULL,1540
1447106521,f26949dde576660aefcfbc0c15fb0db6,Trial,45,0,t_b_7,NULL,NULL,P,NULL,866
1447106521,f26949dde576660aefcfbc0c15fb0db6,Trial,55,0,t_sp_10,NULL,NULL,P,NULL,884
1447106521,f26949dde576660aefcfbc0c15fb0db6,Trial,37,0,t_sp_1,NULL,NULL,P,NULL,839
1447106521,f26949dde576660aefcfbc0c15fb0db6,Trial,49,0,t_b_11,NULL,NULL,P,NULL,750
1447106521,f26949dde576660aefcfbc0c15fb0db6,Trial,30,0,t_b_1,NULL,NULL,P,NULL,970
1447106521,f26949dde576660aefcfbc0c15fb0db6,Trial,39,0,t_sp_8,NULL,NULL,P,NULL,1057
1447106521,f26949dde576660aefcfbc0c15fb0db6,Trial,56,0,t_sp_11,NULL,NULL,P,NULL,1101
1447106521,f26949dde576660aefcfbc0c15fb0db6,Trial,38,0,t_sp_7,NULL,NULL,P,NULL,989
1447106521,f26949dde576660aefcfbc0c15fb0db6,Trial,47,0,t_b_9,NULL,NULL,P,NULL,899
1447106521,f26949dde576660aefcfbc0c15fb0db6,Trial,54,0,t_sp_9,NULL,NULL,P,NULL,1055
1447106521,f26949dde576660aefcfbc0c15fb0db6,Trial,43,0,t_sp_18,NULL,NULL,T,NULL,1620
1447106521,f26949dde576660aefcfbc0c15fb0db6,Trial,33,0,t_b_9,NULL,NULL,P,NULL,1343
1447106521,f26949dde576660aefcfbc0c15fb0db6,Trial,36,0,t_b_18,NULL,NULL,T,NULL,900
1447106521,f26949dde576660aefcfbc0c15fb0db6,Trial,40,0,t_sp_9,NULL,NULL,P,NULL,1213
1447106521,f26949dde576660aefcfbc0c15fb0db6,Trial,35,0,t_b_11,NULL,NULL,P,NULL,872
1447106521,f26949dde576660aefcfbc0c15fb0db6,Trial,50,0,t_b_18,NULL,NULL,T,NULL,1052
1447106521,f26949dde576660aefcfbc0c15fb0db6,Trial,46,0,t_b_8,NULL,NULL,P,NULL,1140
1447106521,f26949dde576660aefcfbc0c15fb0db6,Trial,52,0,t_sp_7,NULL,NULL,P,NULL,1008
1447106521,f26949dde576660aefcfbc0c15fb0db6,Trial,32,0,t_b_8,NULL,NULL,P,NULL,1220
1447106521,f26949dde576660aefcfbc0c15fb0db6,Trial,34,0,t_b_10,NULL,NULL,P,NULL,949
1447106521,f26949dde576660aefcfbc0c15fb0db6,Trial,53,0,t_sp_8,NULL,NULL,T,NULL,1973
1447106521,f26949dde576660aefcfbc0c15fb0db6,Trial,51,0,t_sp_1,NULL,NULL,P,NULL,1473
1447106521,f26949dde576660aefcfbc0c15fb0db6,Trial,44,0,t_b_1,NULL,NULL,P,NULL,1074
1447106521,f26949dde576660aefcfbc0c15fb0db6,Trial,41,0,t_sp_10,NULL,NULL,P,NULL,1289
1447106521,f26949dde576660aefcfbc0c15fb0db6,Trial,41,0,t_sp_10,NULL,NULL,T,NULL,1290
1447106521,f26949dde576660aefcfbc0c15fb0db6,Trial,38,0,t_sp_7,NULL,NULL,P,NULL,1138
1447106521,f26949dde576660aefcfbc0c15fb0db6,Trial,45,0,t_b_7,NULL,NULL,P,NULL,1058
1447106521,f26949dde576660aefcfbc0c15fb0db6,Trial,48,0,t_b_10,NULL,NULL,P,NULL,1201
1447106521,f26949dde576660aefcfbc0c15fb0db6,Trial,34,0,t_b_10,NULL,NULL,P,NULL,1578
1447106521,f26949dde576660aefcfbc0c15fb0db6,Trial,51,0,t_sp_1,NULL,NULL,P,NULL,1142
1447106521,f26949dde576660aefcfbc0c15fb0db6,Trial,33,0,t_b_9,NULL,NULL,T,NULL,1833
1447106521,f26949dde576660aefcfbc0c15fb0db6,Trial,56,0,t_sp_11,NULL,NULL,P,NULL,1411
1447106521,f26949dde576660aefcfbc0c15fb0db6,Trial,43,0,t_sp_18,NULL,NULL,T,NULL,2041
1447106521,f26949dde576660aefcfbc0c15fb0db6,Trial,47,0,t_b_9,NULL,NULL,P,NULL,985
1447106521,f26949dde576660aefcfbc0c15fb0db6,Trial,53,0,t_sp_8,NULL,NULL,P,NULL,1094
1447106521,f26949dde576660aefcfbc0c15fb0db6,Trial,32,0,t_b_8,NULL,NULL,P,NULL,1021
1447106521,f26949dde576660aefcfbc0c15fb0db6,Trial,40,0,t_sp_9,NULL,NULL,P,NULL,1349
1447106521,f26949dde576660aefcfbc0c15fb0db6,Trial,31,0,t_b_7,NULL,NULL,P,NULL,1177
1447106521,f26949dde576660aefcfbc0c15fb0db6,Trial,30,0,t_b_1,NULL,NULL,P,NULL,978
1447106521,f26949dde576660aefcfbc0c15fb0db6,Trial,44,0,t_b_1,NULL,NULL,P,NULL,1530
1447106521,f26949dde576660aefcfbc0c15fb0db6,Trial,42,0,t_sp_11,NULL,NULL,P,NULL,1291
1447106521,f26949dde576660aefcfbc0c15fb0db6,Trial,52,0,t_sp_7,NULL,NULL,T,NULL,1136
1447106521,f26949dde576660aefcfbc0c15fb0db6,Trial,55,0,t_sp_10,NULL,NULL,P,NULL,1298
1447106521,f26949dde576660aefcfbc0c15fb0db6,Trial,36,0,t_b_18,NULL,NULL,P,NULL,1329
1447106521,f26949dde576660aefcfbc0c15fb0db6,Trial,57,0,t_sp_18,NULL,NULL,T,NULL,1032
1447106521,f26949dde576660aefcfbc0c15fb0db6,Trial,39,0,t_sp_8,NULL,NULL,P,NULL,1133
1447106521,f26949dde576660aefcfbc0c15fb0db6,Trial,46,0,t_b_8,NULL,NULL,T,NULL,1561
1447106521,f26949dde576660aefcfbc0c15fb0db6,Trial,49,0,t_b_11,NULL,NULL,P,NULL,1008
1447106521,f26949dde576660aefcfbc0c15fb0db6,Trial,54,0,t_sp_9,NULL,NULL,P,NULL,976
1447106521,f26949dde576660aefcfbc0c15fb0db6,Trial,37,0,t_sp_1,NULL,NULL,P,NULL,1290
1447106521,f26949dde576660aefcfbc0c15fb0db6,Trial,50,0,t_b_18,NULL,NULL,P,NULL,1189
1447106521,f26949dde576660aefcfbc0c15fb0db6,Trial,35,0,t_b_11,NULL,NULL,P,NULL,970
1447106521,f26949dde576660aefcfbc0c15fb0db6,Trial,35,0,t_b_11,NULL,NULL,T,NULL,789
1447106521,f26949dde576660aefcfbc0c15fb0db6,Trial,33,0,t_b_9,NULL,NULL,T,NULL,1006
1447106521,f26949dde576660aefcfbc0c15fb0db6,Trial,43,0,t_sp_18,NULL,NULL,T,NULL,902
1447106521,f26949dde576660aefcfbc0c15fb0db6,Trial,48,0,t_b_10,NULL,NULL,P,NULL,1237
1447106521,f26949dde576660aefcfbc0c15fb0db6,Trial,45,0,t_b_7,NULL,NULL,P,NULL,955
1447106521,f26949dde576660aefcfbc0c15fb0db6,Trial,38,0,t_sp_7,NULL,NULL,P,NULL,1127
1447106521,f26949dde576660aefcfbc0c15fb0db6,Trial,37,0,t_sp_1,NULL,NULL,P,NULL,1128
1447106521,f26949dde576660aefcfbc0c15fb0db6,Trial,31,0,t_b_7,NULL,NULL,P,NULL,1039
1447106521,f26949dde576660aefcfbc0c15fb0db6,Trial,30,0,t_b_1,NULL,NULL,P,NULL,1370
1447106521,f26949dde576660aefcfbc0c15fb0db6,Trial,42,0,t_sp_11,NULL,NULL,T,NULL,1306
1447106521,f26949dde576660aefcfbc0c15fb0db6,Trial,41,0,t_sp_10,NULL,NULL,T,NULL,1738
1447106521,f26949dde576660aefcfbc0c15fb0db6,Trial,52,0,t_sp_7,NULL,NULL,T,NULL,1742
1447106521,f26949dde576660aefcfbc0c15fb0db6,Trial,32,0,t_b_8,NULL,NULL,P,NULL,1049
1447106521,f26949dde576660aefcfbc0c15fb0db6,Trial,44,0,t_b_1,NULL,NULL,P,NULL,737
1447106521,f26949dde576660aefcfbc0c15fb0db6,Trial,39,0,t_sp_8,NULL,NULL,P,NULL,869
1447106521,f26949dde576660aefcfbc0c15fb0db6,Trial,34,0,t_b_10,NULL,NULL,P,NULL,818
1447106521,f26949dde576660aefcfbc0c15fb0db6,Trial,36,0,t_b_18,NULL,NULL,T,NULL,1036
1447106521,f26949dde576660aefcfbc0c15fb0db6,Trial,51,0,t_sp_1,NULL,NULL,P,NULL,1052
1447106521,f26949dde576660aefcfbc0c15fb0db6,Trial,53,0,t_sp_8,NULL,NULL,P,NULL,1001
1447106521,f26949dde576660aefcfbc0c15fb0db6,Trial,47,0,t_b_9,NULL,NULL,P,NULL,803
1447106521,f26949dde576660aefcfbc0c15fb0db6,Trial,56,0,t_sp_11,NULL,NULL,T,NULL,1136
1447106521,f26949dde576660aefcfbc0c15fb0db6,Trial,49,0,t_b_11,NULL,NULL,T,NULL,738
1447106521,f26949dde576660aefcfbc0c15fb0db6,Trial,46,0,t_b_8,NULL,NULL,P,NULL,988
1447106521,f26949dde576660aefcfbc0c15fb0db6,Trial,54,0,t_sp_9,NULL,NULL,T,NULL,1041
1447106521,f26949dde576660aefcfbc0c15fb0db6,Trial,40,0,t_sp_9,NULL,NULL,T,NULL,972
1447106521,f26949dde576660aefcfbc0c15fb0db6,Trial,55,0,t_sp_10,NULL,NULL,P,NULL,1739
1447106521,f26949dde576660aefcfbc0c15fb0db6,Trial,50,0,t_b_18,NULL,NULL,P,NULL,1098
1447106521,f26949dde576660aefcfbc0c15fb0db6,Trial,57,0,t_sp_18,NULL,NULL,P,NULL,1193
1447106521,f26949dde576660aefcfbc0c15fb0db6,Trial,57,0,t_sp_18,NULL,NULL,P,NULL,1055
1447106521,f26949dde576660aefcfbc0c15fb0db6,Trial,31,0,t_b_7,NULL,NULL,P,NULL,754
1447106521,f26949dde576660aefcfbc0c15fb0db6,Trial,35,0,t_b_11,NULL,NULL,T,NULL,1224
1447106521,f26949dde576660aefcfbc0c15fb0db6,Trial,30,0,t_b_1,NULL,NULL,P,NULL,971
1447106521,f26949dde576660aefcfbc0c15fb0db6,Trial,33,0,t_b_9,NULL,NULL,P,NULL,898
1447106521,f26949dde576660aefcfbc0c15fb0db6,Trial,47,0,t_b_9,NULL,NULL,P,NULL,887
1447106521,f26949dde576660aefcfbc0c15fb0db6,Trial,52,0,t_sp_7,NULL,NULL,P,NULL,1405
1447106521,f26949dde576660aefcfbc0c15fb0db6,Trial,42,0,t_sp_11,NULL,NULL,T,NULL,1035
1447106521,f26949dde576660aefcfbc0c15fb0db6,Trial,40,0,t_sp_9,NULL,NULL,P,NULL,931
1447106521,f26949dde576660aefcfbc0c15fb0db6,Trial,44,0,t_b_1,NULL,NULL,P,NULL,920
1447106521,f26949dde576660aefcfbc0c15fb0db6,Trial,51,0,t_sp_1,NULL,NULL,P,NULL,1649
1447106521,f26949dde576660aefcfbc0c15fb0db6,Trial,32,0,t_b_8,NULL,NULL,P,NULL,1588
1447106521,f26949dde576660aefcfbc0c15fb0db6,Trial,36,0,t_b_18,NULL,NULL,T,NULL,1396
1447106521,f26949dde576660aefcfbc0c15fb0db6,Trial,50,0,t_b_18,NULL,NULL,T,NULL,776
1447106521,f26949dde576660aefcfbc0c15fb0db6,Trial,46,0,t_b_8,NULL,NULL,P,NULL,1375
1447106521,f26949dde576660aefcfbc0c15fb0db6,Trial,55,0,t_sp_10,NULL,NULL,T,NULL,1981
1447106521,f26949dde576660aefcfbc0c15fb0db6,Trial,39,0,t_sp_8,NULL,NULL,T,NULL,2293
1447106521,f26949dde576660aefcfbc0c15fb0db6,Trial,54,0,t_sp_9,NULL,NULL,P,NULL,1055
1447106521,f26949dde576660aefcfbc0c15fb0db6,Trial,43,0,t_sp_18,NULL,NULL,T,NULL,1404
1447106521,f26949dde576660aefcfbc0c15fb0db6,Trial,48,0,t_b_10,NULL,NULL,P,NULL,1211
1447106521,f26949dde576660aefcfbc0c15fb0db6,Trial,56,0,t_sp_11,NULL,NULL,T,NULL,1739
1447106521,f26949dde576660aefcfbc0c15fb0db6,Trial,53,0,t_sp_8,NULL,NULL,P,NULL,1376
1447106521,f26949dde576660aefcfbc0c15fb0db6,Trial,49,0,t_b_11,NULL,NULL,T,NULL,1337
1447106521,f26949dde576660aefcfbc0c15fb0db6,Trial,37,0,t_sp_1,NULL,NULL,T,NULL,1540
1447106521,f26949dde576660aefcfbc0c15fb0db6,Trial,34,0,t_b_10,NULL,NULL,P,NULL,1322
1447106521,f26949dde576660aefcfbc0c15fb0db6,Trial,45,0,t_b_7,NULL,NULL,P,NULL,1288
1447106521,f26949dde576660aefcfbc0c15fb0db6,Trial,41,0,t_sp_10,NULL,NULL,T,NULL,1037
1447106521,f26949dde576660aefcfbc0c15fb0db6,Trial,38,0,t_sp_7,NULL,NULL,T,NULL,1138
1447106521,f26949dde576660aefcfbc0c15fb0db6,Trial,54,0,t_sp_9,NULL,NULL,T,NULL,1008
1447106521,f26949dde576660aefcfbc0c15fb0db6,Trial,42,0,t_sp_11,NULL,NULL,T,NULL,1456
1447106521,f26949dde576660aefcfbc0c15fb0db6,Trial,38,0,t_sp_7,NULL,NULL,T,NULL,1640
1447106521,f26949dde576660aefcfbc0c15fb0db6,Trial,34,0,t_b_10,NULL,NULL,P,NULL,894
1447106521,f26949dde576660aefcfbc0c15fb0db6,Trial,45,0,t_b_7,NULL,NULL,T,NULL,1390
1447106521,f26949dde576660aefcfbc0c15fb0db6,Trial,41,0,t_sp_10,NULL,NULL,T,NULL,1143
1447106521,f26949dde576660aefcfbc0c15fb0db6,Trial,56,0,t_sp_11,NULL,NULL,T,NULL,1022
1447106521,f26949dde576660aefcfbc0c15fb0db6,Trial,51,0,t_sp_1,NULL,NULL,T,NULL,1458
1447106521,f26949dde576660aefcfbc0c15fb0db6,Trial,31,0,t_b_7,NULL,NULL,P,NULL,1006
1447106521,f26949dde576660aefcfbc0c15fb0db6,Trial,50,0,t_b_18,NULL,NULL,T,NULL,1622
1447106521,f26949dde576660aefcfbc0c15fb0db6,Trial,33,0,t_b_9,NULL,NULL,T,NULL,1377
1447106521,f26949dde576660aefcfbc0c15fb0db6,Trial,37,0,t_sp_1,NULL,NULL,T,NULL,1029
1447106521,f26949dde576660aefcfbc0c15fb0db6,Trial,40,0,t_sp_9,NULL,NULL,T,NULL,1715
1447106521,f26949dde576660aefcfbc0c15fb0db6,Trial,36,0,t_b_18,NULL,NULL,P,NULL,1444
1447106521,f26949dde576660aefcfbc0c15fb0db6,Trial,32,0,t_b_8,NULL,NULL,P,NULL,1259
1447106521,f26949dde576660aefcfbc0c15fb0db6,Trial,53,0,t_sp_8,NULL,NULL,P,NULL,1214
1447106521,f26949dde576660aefcfbc0c15fb0db6,Trial,52,0,t_sp_7,NULL,NULL,T,NULL,1370
1447106521,f26949dde576660aefcfbc0c15fb0db6,Trial,57,0,t_sp_18,NULL,NULL,T,NULL,1238
1447106521,f26949dde576660aefcfbc0c15fb0db6,Trial,49,0,t_b_11,NULL,NULL,T,NULL,985
1447106521,f26949dde576660aefcfbc0c15fb0db6,Trial,35,0,t_b_11,NULL,NULL,T,NULL,1573
1447106521,f26949dde576660aefcfbc0c15fb0db6,Trial,44,0,t_b_1,NULL,NULL,P,NULL,1529
1447106521,f26949dde576660aefcfbc0c15fb0db6,Trial,48,0,t_b_10,NULL,NULL,P,NULL,1315
1447106521,f26949dde576660aefcfbc0c15fb0db6,Trial,43,0,t_sp_18,NULL,NULL,P,NULL,1084
1447106521,f26949dde576660aefcfbc0c15fb0db6,Trial,47,0,t_b_9,NULL,NULL,T,NULL,1846
1447106521,f26949dde576660aefcfbc0c15fb0db6,Trial,39,0,t_sp_8,NULL,NULL,T,NULL,1561
1447106521,f26949dde576660aefcfbc0c15fb0db6,Trial,55,0,t_sp_10,NULL,NULL,T,NULL,1254
1447106521,f26949dde576660aefcfbc0c15fb0db6,Trial,30,0,t_b_1,NULL,NULL,T,NULL,1251
1447106521,f26949dde576660aefcfbc0c15fb0db6,Trial,46,0,t_b_8,NULL,NULL,T,NULL,1121
1447106521,f26949dde576660aefcfbc0c15fb0db6,Trial,50,0,t_b_18,NULL,NULL,T,NULL,1058
1447106521,f26949dde576660aefcfbc0c15fb0db6,Trial,31,0,t_b_7,NULL,NULL,T,NULL,1130
1447106521,f26949dde576660aefcfbc0c15fb0db6,Trial,46,0,t_b_8,NULL,NULL,T,NULL,1238
1447106521,f26949dde576660aefcfbc0c15fb0db6,Trial,52,0,t_sp_7,NULL,NULL,T,NULL,1348
1447106521,f26949dde576660aefcfbc0c15fb0db6,Trial,34,0,t_b_10,NULL,NULL,T,NULL,1257
1447106521,f26949dde576660aefcfbc0c15fb0db6,Trial,40,0,t_sp_9,NULL,NULL,T,NULL,1658
1447106521,f26949dde576660aefcfbc0c15fb0db6,Trial,35,0,t_b_11,NULL,NULL,P,NULL,1240
1447106521,f26949dde576660aefcfbc0c15fb0db6,Trial,39,0,t_sp_8,NULL,NULL,T,NULL,1614
1447106521,f26949dde576660aefcfbc0c15fb0db6,Trial,38,0,t_sp_7,NULL,NULL,T,NULL,1252
1447106521,f26949dde576660aefcfbc0c15fb0db6,Trial,33,0,t_b_9,NULL,NULL,P,NULL,1087
1447106521,f26949dde576660aefcfbc0c15fb0db6,Trial,51,0,t_sp_1,NULL,NULL,P,NULL,1238
1447106521,f26949dde576660aefcfbc0c15fb0db6,Trial,43,0,t_sp_18,NULL,NULL,T,NULL,1563
1447106521,f26949dde576660aefcfbc0c15fb0db6,Trial,48,0,t_b_10,NULL,NULL,T,NULL,1230
1447106521,f26949dde576660aefcfbc0c15fb0db6,Trial,41,0,t_sp_10,NULL,NULL,T,NULL,1554
1447106521,f26949dde576660aefcfbc0c15fb0db6,Trial,45,0,t_b_7,NULL,NULL,T,NULL,1424
1447106521,f26949dde576660aefcfbc0c15fb0db6,Trial,32,0,t_b_8,NULL,NULL,T,NULL,1301
1447106521,f26949dde576660aefcfbc0c15fb0db6,Trial,36,0,t_b_18,NULL,NULL,P,NULL,1093
1447106521,f26949dde576660aefcfbc0c15fb0db6,Trial,30,0,t_b_1,NULL,NULL,T,NULL,1269
1447106521,f26949dde576660aefcfbc0c15fb0db6,Trial,56,0,t_sp_11,NULL,NULL,T,NULL,1301
1447106521,f26949dde576660aefcfbc0c15fb0db6,Trial,42,0,t_sp_11,NULL,NULL,T,NULL,1422
1447106521,f26949dde576660aefcfbc0c15fb0db6,Trial,57,0,t_sp_18,NULL,NULL,P,NULL,1319
1447106521,f26949dde576660aefcfbc0c15fb0db6,Trial,37,0,t_sp_1,NULL,NULL,T,NULL,1486
1447106521,f26949dde576660aefcfbc0c15fb0db6,Trial,54,0,t_sp_9,NULL,NULL,T,NULL,1374
1447106521,f26949dde576660aefcfbc0c15fb0db6,Trial,44,0,t_b_1,NULL,NULL,P,NULL,1734
1447106521,f26949dde576660aefcfbc0c15fb0db6,Trial,55,0,t_sp_10,NULL,NULL,P,NULL,1298
1447106521,f26949dde576660aefcfbc0c15fb0db6,Trial,47,0,t_b_9,NULL,NULL,T,NULL,1637
1447106521,f26949dde576660aefcfbc0c15fb0db6,Trial,53,0,t_sp_8,NULL,NULL,T,NULL,1492
1447106521,f26949dde576660aefcfbc0c15fb0db6,Trial,49,0,t_b_11,NULL,NULL,T,NULL,1279
1447106521,f26949dde576660aefcfbc0c15fb0db6,Trial,32,0,t_b_8,NULL,NULL,T,NULL,1142
1447106521,f26949dde576660aefcfbc0c15fb0db6,Trial,46,0,t_b_8,NULL,NULL,T,NULL,1220
1447106521,f26949dde576660aefcfbc0c15fb0db6,Trial,43,0,t_sp_18,NULL,NULL,T,NULL,1508
1447106521,f26949dde576660aefcfbc0c15fb0db6,Trial,56,0,t_sp_11,NULL,NULL,T,NULL,1389
1447106521,f26949dde576660aefcfbc0c15fb0db6,Trial,54,0,t_sp_9,NULL,NULL,T,NULL,1385
1447106521,f26949dde576660aefcfbc0c15fb0db6,Trial,53,0,t_sp_8,NULL,NULL,T,NULL,1504
1447106521,f26949dde576660aefcfbc0c15fb0db6,Trial,35,0,t_b_11,NULL,NULL,P,NULL,1220
1447106521,f26949dde576660aefcfbc0c15fb0db6,Trial,39,0,t_sp_8,NULL,NULL,T,NULL,1504
1447106521,f26949dde576660aefcfbc0c15fb0db6,Trial,40,0,t_sp_9,NULL,NULL,T,NULL,1338
1447106521,f26949dde576660aefcfbc0c15fb0db6,Trial,44,0,t_b_1,NULL,NULL,T,NULL,1388
1447106521,f26949dde576660aefcfbc0c15fb0db6,Trial,50,0,t_b_18,NULL,NULL,P,NULL,1014
1447106521,f26949dde576660aefcfbc0c15fb0db6,Trial,30,0,t_b_1,NULL,NULL,T,NULL,1300
1447106521,f26949dde576660aefcfbc0c15fb0db6,Trial,57,0,t_sp_18,NULL,NULL,T,NULL,1473
1447106521,f26949dde576660aefcfbc0c15fb0db6,Trial,49,0,t_b_11,NULL,NULL,T,NULL,1238
1447106521,f26949dde576660aefcfbc0c15fb0db6,Trial,47,0,t_b_9,NULL,NULL,P,NULL,1306
1447106521,f26949dde576660aefcfbc0c15fb0db6,Trial,52,0,t_sp_7,NULL,NULL,P,NULL,1922
1447106521,f26949dde576660aefcfbc0c15fb0db6,Trial,36,0,t_b_18,NULL,NULL,T,NULL,1163
1447106521,f26949dde576660aefcfbc0c15fb0db6,Trial,41,0,t_sp_10,NULL,NULL,T,NULL,1409
1447106521,f26949dde576660aefcfbc0c15fb0db6,Trial,55,0,t_sp_10,NULL,NULL,T,NULL,1436
1447106521,f26949dde576660aefcfbc0c15fb0db6,Trial,33,0,t_b_9,NULL,NULL,P,NULL,1532
1447106521,f26949dde576660aefcfbc0c15fb0db6,Trial,42,0,t_sp_11,NULL,NULL,T,NULL,1533
1447106521,f26949dde576660aefcfbc0c15fb0db6,Trial,37,0,t_sp_1,NULL,NULL,T,NULL,1450
1447106521,f26949dde576660aefcfbc0c15fb0db6,Trial,31,0,t_b_7,NULL,NULL,P,NULL,1474
1447106521,f26949dde576660aefcfbc0c15fb0db6,Trial,34,0,t_b_10,NULL,NULL,P,NULL,1164
1447106521,f26949dde576660aefcfbc0c15fb0db6,Trial,51,0,t_sp_1,NULL,NULL,P,NULL,1230
1447106521,f26949dde576660aefcfbc0c15fb0db6,Trial,38,0,t_sp_7,NULL,NULL,P,NULL,1255
1447106521,f26949dde576660aefcfbc0c15fb0db6,Trial,45,0,t_b_7,NULL,NULL,P,NULL,1750
1447106521,f26949dde576660aefcfbc0c15fb0db6,Trial,48,0,t_b_10,NULL,NULL,T,NULL,1404
1447106521,f26949dde576660aefcfbc0c15fb0db6,Trial,41,0,t_sp_10,NULL,NULL,T,NULL,1640
1447106521,f26949dde576660aefcfbc0c15fb0db6,Trial,53,0,t_sp_8,NULL,NULL,T,NULL,1310
1447106521,f26949dde576660aefcfbc0c15fb0db6,Trial,57,0,t_sp_18,NULL,NULL,T,NULL,1817
1447106521,f26949dde576660aefcfbc0c15fb0db6,Trial,52,0,t_sp_7,NULL,NULL,P,NULL,1232
1447106521,f26949dde576660aefcfbc0c15fb0db6,Trial,51,0,t_sp_1,NULL,NULL,P,NULL,1504
1447106521,f26949dde576660aefcfbc0c15fb0db6,Trial,49,0,t_b_11,NULL,NULL,T,NULL,1400
1447106521,f26949dde576660aefcfbc0c15fb0db6,Trial,45,0,t_b_7,NULL,NULL,T,NULL,1240
1447106521,f26949dde576660aefcfbc0c15fb0db6,Trial,40,0,t_sp_9,NULL,NULL,P,NULL,1498
1447106521,f26949dde576660aefcfbc0c15fb0db6,Trial,33,0,t_b_9,NULL,NULL,T,NULL,1166
1447106521,f26949dde576660aefcfbc0c15fb0db6,Trial,36,0,t_b_18,NULL,NULL,T,NULL,1422
1447106521,f26949dde576660aefcfbc0c15fb0db6,Trial,37,0,t_sp_1,NULL,NULL,T,NULL,1491
1447106521,f26949dde576660aefcfbc0c15fb0db6,Trial,48,0,t_b_10,NULL,NULL,P,NULL,1083
1447106521,f26949dde576660aefcfbc0c15fb0db6,Trial,56,0,t_sp_11,NULL,NULL,P,NULL,1823
1447106521,f26949dde576660aefcfbc0c15fb0db6,Trial,39,0,t_sp_8,NULL,NULL,T,NULL,1689
1447106521,f26949dde576660aefcfbc0c15fb0db6,Trial,46,0,t_b_8,NULL,NULL,P,NULL,1636
1447106521,f26949dde576660aefcfbc0c15fb0db6,Trial,43,0,t_sp_18,NULL,NULL,P,NULL,1360
1447106521,f26949dde576660aefcfbc0c15fb0db6,Trial,32,0,t_b_8,NULL,NULL,T,NULL,1394
1447106521,f26949dde576660aefcfbc0c15fb0db6,Trial,42,0,t_sp_11,NULL,NULL,P,NULL,1439
1447106521,f26949dde576660aefcfbc0c15fb0db6,Trial,35,0,t_b_11,NULL,NULL,T,NULL,1435
1447106521,f26949dde576660aefcfbc0c15fb0db6,Trial,30,0,t_b_1,NULL,NULL,P,NULL,1449
1447106521,f26949dde576660aefcfbc0c15fb0db6,Trial,38,0,t_sp_7,NULL,NULL,P,NULL,1927
1447106521,f26949dde576660aefcfbc0c15fb0db6,Trial,44,0,t_b_1,NULL,NULL,T,NULL,1799
1447106521,f26949dde576660aefcfbc0c15fb0db6,Trial,50,0,t_b_18,NULL,NULL,P,NULL,1432
1447106521,f26949dde576660aefcfbc0c15fb0db6,Trial,47,0,t_b_9,NULL,NULL,P,NULL,1762
1447106521,f26949dde576660aefcfbc0c15fb0db6,Trial,31,0,t_b_7,NULL,NULL,T,NULL,1356
1447106521,f26949dde576660aefcfbc0c15fb0db6,Trial,34,0,t_b_10,NULL,NULL,T,NULL,1421
1447106521,f26949dde576660aefcfbc0c15fb0db6,Trial,54,0,t_sp_9,NULL,NULL,P,NULL,1530
1447106521,f26949dde576660aefcfbc0c15fb0db6,Trial,55,0,t_sp_10,NULL,NULL,T,NULL,1695
1447106521,f26949dde576660aefcfbc0c15fb0db6,Trial,43,0,t_sp_18,NULL,NULL,P,NULL,1464
1447106521,f26949dde576660aefcfbc0c15fb0db6,Trial,48,0,t_b_10,NULL,NULL,P,NULL,1872
1447106521,f26949dde576660aefcfbc0c15fb0db6,Trial,38,0,t_sp_7,NULL,NULL,T,NULL,1831
1447106521,f26949dde576660aefcfbc0c15fb0db6,Trial,53,0,t_sp_8,NULL,NULL,T,NULL,1598
1447106521,f26949dde576660aefcfbc0c15fb0db6,Trial,36,0,t_b_18,NULL,NULL,P,NULL,1305
1447106521,f26949dde576660aefcfbc0c15fb0db6,Trial,33,0,t_b_9,NULL,NULL,P,NULL,1654
1447106521,f26949dde576660aefcfbc0c15fb0db6,Trial,51,0,t_sp_1,NULL,NULL,T,NULL,1648
1447106521,f26949dde576660aefcfbc0c15fb0db6,Trial,40,0,t_sp_9,NULL,NULL,P,NULL,1978
1447106521,f26949dde576660aefcfbc0c15fb0db6,Trial,39,0,t_sp_8,NULL,NULL,T,NULL,1582
1447106521,f26949dde576660aefcfbc0c15fb0db6,Trial,46,0,t_b_8,NULL,NULL,T,NULL,1429
1447106521,f26949dde576660aefcfbc0c15fb0db6,Trial,50,0,t_b_18,NULL,NULL,P,NULL,1327
1447106521,f26949dde576660aefcfbc0c15fb0db6,Trial,55,0,t_sp_10,NULL,NULL,T,NULL,1792
1447106521,f26949dde576660aefcfbc0c15fb0db6,Trial,31,0,t_b_7,NULL,NULL,P,NULL,1973
1447106521,f26949dde576660aefcfbc0c15fb0db6,Trial,45,0,t_b_7,NULL,NULL,P,NULL,1154
1447106521,f26949dde576660aefcfbc0c15fb0db6,Trial,57,0,t_sp_18,NULL,NULL,T,NULL,1755
1447106521,f26949dde576660aefcfbc0c15fb0db6,Trial,41,0,t_sp_10,NULL,NULL,P,NULL,1331
1447106521,f26949dde576660aefcfbc0c15fb0db6,Trial,47,0,t_b_9,NULL,NULL,P,NULL,1073
1447106521,f26949dde576660aefcfbc0c15fb0db6,Trial,34,0,t_b_10,NULL,NULL,T,NULL,1306
1447106521,f26949dde576660aefcfbc0c15fb0db6,Trial,32,0,t_b_8,NULL,NULL,P,NULL,1584
1447106521,f26949dde576660aefcfbc0c15fb0db6,Trial,35,0,t_b_11,NULL,NULL,T,NULL,1409
1447106521,f26949dde576660aefcfbc0c15fb0db6,Trial,37,0,t_sp_1,NULL,NULL,T,NULL,1969
1447106521,f26949dde576660aefcfbc0c15fb0db6,Trial,44,0,t_b_1,NULL,NULL,P,NULL,1190
1447106521,f26949dde576660aefcfbc0c15fb0db6,Trial,49,0,t_b_11,NULL,NULL,T,NULL,1635
1447106521,f26949dde576660aefcfbc0c15fb0db6,Trial,54,0,t_sp_9,NULL,NULL,P,NULL,1443
1447106521,f26949dde576660aefcfbc0c15fb0db6,Trial,52,0,t_sp_7,NULL,NULL,P,NULL,2249
1447106521,f26949dde576660aefcfbc0c15fb0db6,Trial,56,0,t_sp_11,NULL,NULL,P,NULL,1392
1447106521,f26949dde576660aefcfbc0c15fb0db6,Trial,42,0,t_sp_11,NULL,NULL,P,NULL,1619
1447106521,f26949dde576660aefcfbc0c15fb0db6,Trial,30,0,t_b_1,NULL,NULL,P,NULL,1077
1447106521,f26949dde576660aefcfbc0c15fb0db6,Trial,46,0,t_b_8,NULL,NULL,T,NULL,1622
1447106521,f26949dde576660aefcfbc0c15fb0db6,Trial,30,0,t_b_1,NULL,NULL,T,NULL,1290
1447106521,f26949dde576660aefcfbc0c15fb0db6,Trial,47,0,t_b_9,NULL,NULL,T,NULL,1505
1447106521,f26949dde576660aefcfbc0c15fb0db6,Trial,37,0,t_sp_1,NULL,NULL,P,NULL,1456
1447106521,f26949dde576660aefcfbc0c15fb0db6,Trial,38,0,t_sp_7,NULL,NULL,P,NULL,1423
1447106521,f26949dde576660aefcfbc0c15fb0db6,Trial,39,0,t_sp_8,NULL,NULL,P,NULL,1172
1447106521,f26949dde576660aefcfbc0c15fb0db6,Trial,32,0,t_b_8,NULL,NULL,T,NULL,2064
1447106521,f26949dde576660aefcfbc0c15fb0db6,Trial,31,0,t_b_7,NULL,NULL,P,NULL,1801
1447106521,f26949dde576660aefcfbc0c15fb0db6,Trial,36,0,t_b_18,NULL,NULL,P,NULL,1605
1447106521,f26949dde576660aefcfbc0c15fb0db6,Trial,43,0,t_sp_18,NULL,NULL,P,NULL,2097
1447106521,f26949dde576660aefcfbc0c15fb0db6,Trial,42,0,t_sp_11,NULL,NULL,P,NULL,1442
1447106521,f26949dde576660aefcfbc0c15fb0db6,Trial,35,0,t_b_11,NULL,NULL,T,NULL,1691
1447106521,f26949dde576660aefcfbc0c15fb0db6,Trial,53,0,t_sp_8,NULL,NULL,P,NULL,1903
1447106521,f26949dde576660aefcfbc0c15fb0db6,Trial,48,0,t_b_10,NULL,NULL,P,NULL,1824
1447106521,f26949dde576660aefcfbc0c15fb0db6,Trial,51,0,t_sp_1,NULL,NULL,P,NULL,2519
1447106521,f26949dde576660aefcfbc0c15fb0db6,Trial,56,0,t_sp_11,NULL,NULL,P,NULL,1212
1447106521,f26949dde576660aefcfbc0c15fb0db6,Trial,52,0,t_sp_7,NULL,NULL,P,NULL,1088
1447106521,f26949dde576660aefcfbc0c15fb0db6,Trial,55,0,t_sp_10,NULL,NULL,P,NULL,1128
1447106521,f26949dde576660aefcfbc0c15fb0db6,Trial,44,0,t_b_1,NULL,NULL,T,NULL,1419
1447106521,f26949dde576660aefcfbc0c15fb0db6,Trial,49,0,t_b_11,NULL,NULL,P,NULL,1352
1447106521,f26949dde576660aefcfbc0c15fb0db6,Trial,50,0,t_b_18,NULL,NULL,T,NULL,1623
1447106521,f26949dde576660aefcfbc0c15fb0db6,Trial,40,0,t_sp_9,NULL,NULL,P,NULL,1915
1447106521,f26949dde576660aefcfbc0c15fb0db6,Trial,57,0,t_sp_18,NULL,NULL,T,NULL,1473
1447106521,f26949dde576660aefcfbc0c15fb0db6,Trial,33,0,t_b_9,NULL,NULL,T,NULL,1456
1447106521,f26949dde576660aefcfbc0c15fb0db6,Trial,54,0,t_sp_9,NULL,NULL,P,NULL,1102
1447106521,f26949dde576660aefcfbc0c15fb0db6,Trial,41,0,t_sp_10,NULL,NULL,P,NULL,1220
1447106521,f26949dde576660aefcfbc0c15fb0db6,Trial,45,0,t_b_7,NULL,NULL,T,NULL,1739
1447106521,f26949dde576660aefcfbc0c15fb0db6,Trial,34,0,t_b_10,NULL,NULL,P,NULL,907
1447106521,f26949dde576660aefcfbc0c15fb0db6,Trial,41,0,t_sp_10,NULL,NULL,P,NULL,1064
1447106521,f26949dde576660aefcfbc0c15fb0db6,Trial,42,0,t_sp_11,NULL,NULL,P,NULL,1139
1447106521,f26949dde576660aefcfbc0c15fb0db6,Trial,56,0,t_sp_11,NULL,NULL,P,NULL,1953
1447106521,f26949dde576660aefcfbc0c15fb0db6,Trial,47,0,t_b_9,NULL,NULL,P,NULL,999
1447106521,f26949dde576660aefcfbc0c15fb0db6,Trial,36,0,t_b_18,NULL,NULL,T,NULL,1333
1447106521,f26949dde576660aefcfbc0c15fb0db6,Trial,31,0,t_b_7,NULL,NULL,P,NULL,1445
1447106521,f26949dde576660aefcfbc0c15fb0db6,Trial,40,0,t_sp_9,NULL,NULL,P,NULL,1269
1447106521,f26949dde576660aefcfbc0c15fb0db6,Trial,55,0,t_sp_10,NULL,NULL,P,NULL,1121
1447106521,f26949dde576660aefcfbc0c15fb0db6,Trial,48,0,t_b_10,NULL,NULL,P,NULL,1488
1447106521,f26949dde576660aefcfbc0c15fb0db6,Trial,44,0,t_b_1,NULL,NULL,P,NULL,1027
1447106521,f26949dde576660aefcfbc0c15fb0db6,Trial,49,0,t_b_11,NULL,NULL,P,NULL,975
1447106521,f26949dde576660aefcfbc0c15fb0db6,Trial,34,0,t_b_10,NULL,NULL,P,NULL,2137
1447106521,f26949dde576660aefcfbc0c15fb0db6,Trial,32,0,t_b_8,NULL,NULL,P,NULL,1145
1447106521,f26949dde576660aefcfbc0c15fb0db6,Trial,43,0,t_sp_18,NULL,NULL,P,NULL,1657
1447106521,f26949dde576660aefcfbc0c15fb0db6,Trial,54,0,t_sp_9,NULL,NULL,T,NULL,1342
1447106521,f26949dde576660aefcfbc0c15fb0db6,Trial,38,0,t_sp_7,NULL,NULL,P,NULL,1803
1447106521,f26949dde576660aefcfbc0c15fb0db6,Trial,51,0,t_sp_1,NULL,NULL,P,NULL,1207
1447106521,f26949dde576660aefcfbc0c15fb0db6,Trial,45,0,t_b_7,NULL,NULL,P,NULL,968
1447106521,f26949dde576660aefcfbc0c15fb0db6,Trial,53,0,t_sp_8,NULL,NULL,T,NULL,1588
1447106521,f26949dde576660aefcfbc0c15fb0db6,Trial,57,0,t_sp_18,NULL,NULL,T,NULL,1396
1447106521,f26949dde576660aefcfbc0c15fb0db6,Trial,37,0,t_sp_1,NULL,NULL,P,NULL,1905
1447106521,f26949dde576660aefcfbc0c15fb0db6,Trial,52,0,t_sp_7,NULL,NULL,T,NULL,1416
1447106521,f26949dde576660aefcfbc0c15fb0db6,Trial,35,0,t_b_11,NULL,NULL,T,NULL,870
1447106521,f26949dde576660aefcfbc0c15fb0db6,Trial,30,0,t_b_1,NULL,NULL,T,NULL,953
1447106521,f26949dde576660aefcfbc0c15fb0db6,Trial,50,0,t_b_18,NULL,NULL,T,NULL,1146
1447106521,f26949dde576660aefcfbc0c15fb0db6,Trial,33,0,t_b_9,NULL,NULL,P,NULL,1892
1447106521,f26949dde576660aefcfbc0c15fb0db6,Trial,39,0,t_sp_8,NULL,NULL,P,NULL,1518
1447106521,f26949dde576660aefcfbc0c15fb0db6,Trial,46,0,t_b_8,NULL,NULL,P,NULL,1466
# Columns below this comment are as follows:
# 1. Time results were received.
# 2. MD5 hash of participant's IP address.
# 3. Controller name.
# 4. Item number.
# 5. Element number.
# 6. Type.
# 7. Group.
# 8. Field name.
# 9. Field value.
1447106521,f26949dde576660aefcfbc0c15fb0db6,Form,17,0,debrief,NULL,comments,
1447106521,f26949dde576660aefcfbc0c15fb0db6,Form,17,0,debrief,NULL,_REACTION_TIME_,4749
1447106521,f26949dde576660aefcfbc0c15fb0db6,Form,18,0,exit2,NULL,randomfield,XfpxtvWX
1447106521,f26949dde576660aefcfbc0c15fb0db6,Form,18,0,exit2,NULL,worker_id,AI9VUSA9ZYART
1447106521,f26949dde576660aefcfbc0c15fb0db6,Form,18,0,exit2,NULL,identifier,XfpxtvWX
1447106521,f26949dde576660aefcfbc0c15fb0db6,Form,18,0,exit2,NULL,_REACTION_TIME_,54373
#
# Results on Monday November 09 2015 22:07:38 UTC.
# USER AGENT: Mozilla/5.0 (Windows NT 6.1; WOW64) AppleWebKit/537.36 (KHTML, like Gecko) Chrome/46.0.2490.80 Safari/537.36
# Design number was non-random = 0
#
# Columns below this comment are as follows:
# 1. Time results were received.
# 2. MD5 hash of participant's IP address.
# 3. Controller name.
# 4. Item number.
# 5. Element number.
# 6. Type.
# 7. Group.
# 8. Field name.
# 9. Field value.
1447106858,f6ef241ccc676b74b633c78f33d3a319,Form,2,0,intro,NULL,consentanswer,tpT,P
1447106858,f6ef241ccc676b74b633c78f33d3a319,Form,2,0,intro,NULL,_REACTION_TIME_,5604
1447106858,f6ef241ccc676b74b633c78f33d3a319,Form,3,0,questionnaire,NULL,write_something,
1447106858,f6ef241ccc676b74b633c78f33d3a319,Form,3,0,questionnaire,NULL,NatLang,eng
1447106858,f6ef241ccc676b74b633c78f33d3a319,Form,3,0,questionnaire,NULL,disorder,disorderno
1447106858,f6ef241ccc676b74b633c78f33d3a319,Form,3,0,questionnaire,NULL,_REACTION_TIME_,6292
1447106858,f6ef241ccc676b74b633c78f33d3a319,Form,4,0,headphones,NULL,headphonebrand,Phillips
1447106858,f6ef241ccc676b74b633c78f33d3a319,Form,4,0,headphones,NULL,headphonemodel,SHE2675BP 
1447106858,f6ef241ccc676b74b633c78f33d3a319,Form,4,0,headphones,NULL,headphoneyesno,headphoneyes
1447106858,f6ef241ccc676b74b633c78f33d3a319,Form,4,0,headphones,NULL,_REACTION_TIME_,80187
# Columns below this comment are as follows:
# 1. Time results were received.
# 2. MD5 hash of participant's IP address.
# 3. Controller name.
# 4. Item number.
# 5. Element number.
# 6. Type.
# 7. Group.
# 8. Question (NULL if none).
# 9. Answer.
# 10. Whether or not answer was correct (NULL if N/A).
# 11. Time taken to answer.
1447106858,f6ef241ccc676b74b633c78f33d3a319,Trial,22,0,pnt_b_1,NULL,&nbsp;&nbsp;&nbsp;&nbsp;click on the sound,P,NULL,3286
1447106858,f6ef241ccc676b74b633c78f33d3a319,Trial,23,0,pnt_b_18,NULL,&nbsp;&nbsp;&nbsp;&nbsp;click on the sound,P,NULL,1713
1447106858,f6ef241ccc676b74b633c78f33d3a319,Trial,25,0,pnt_sp_18,NULL,&nbsp;&nbsp;&nbsp;&nbsp;click on the sound,T,NULL,1779
1447106858,f6ef241ccc676b74b633c78f33d3a319,Trial,24,0,pnt_sp_1,NULL,&nbsp;&nbsp;&nbsp;&nbsp;click on the sound,P,NULL,1383
1447106858,f6ef241ccc676b74b633c78f33d3a319,Trial,29,0,pto_b_18,NULL,&nbsp;&nbsp;&nbsp;&nbsp;click on the sound,T,NULL,1489
1447106858,f6ef241ccc676b74b633c78f33d3a319,Trial,28,0,pto_b_1,NULL,&nbsp;&nbsp;&nbsp;&nbsp;click on the sound,P,NULL,1203
1447106858,f6ef241ccc676b74b633c78f33d3a319,Trial,26,0,pto_sp_1,NULL,&nbsp;&nbsp;&nbsp;&nbsp;click on the sound,P,NULL,1577
1447106858,f6ef241ccc676b74b633c78f33d3a319,Trial,27,0,pto_sp_18,NULL,&nbsp;&nbsp;&nbsp;&nbsp;click on the sound,T,NULL,1440
1447106858,f6ef241ccc676b74b633c78f33d3a319,Trial,35,0,t_b_11,NULL,NULL,T,NULL,1975
1447106858,f6ef241ccc676b74b633c78f33d3a319,Trial,31,0,t_b_7,NULL,NULL,T,NULL,1212
1447106858,f6ef241ccc676b74b633c78f33d3a319,Trial,54,0,t_sp_9,NULL,NULL,T,NULL,1448
1447106858,f6ef241ccc676b74b633c78f33d3a319,Trial,57,0,t_sp_18,NULL,NULL,T,NULL,1240
1447106858,f6ef241ccc676b74b633c78f33d3a319,Trial,33,0,t_b_9,NULL,NULL,P,NULL,1220
1447106858,f6ef241ccc676b74b633c78f33d3a319,Trial,42,0,t_sp_11,NULL,NULL,T,NULL,1328
1447106858,f6ef241ccc676b74b633c78f33d3a319,Trial,50,0,t_b_18,NULL,NULL,T,NULL,1180
1447106858,f6ef241ccc676b74b633c78f33d3a319,Trial,34,0,t_b_10,NULL,NULL,T,NULL,1251
1447106858,f6ef241ccc676b74b633c78f33d3a319,Trial,56,0,t_sp_11,NULL,NULL,T,NULL,1209
1447106858,f6ef241ccc676b74b633c78f33d3a319,Trial,38,0,t_sp_7,NULL,NULL,P,NULL,1206
1447106858,f6ef241ccc676b74b633c78f33d3a319,Trial,30,0,t_b_1,NULL,NULL,P,NULL,1677
1447106858,f6ef241ccc676b74b633c78f33d3a319,Trial,32,0,t_b_8,NULL,NULL,P,NULL,1214
1447106858,f6ef241ccc676b74b633c78f33d3a319,Trial,44,0,t_b_1,NULL,NULL,P,NULL,903
1447106858,f6ef241ccc676b74b633c78f33d3a319,Trial,37,0,t_sp_1,NULL,NULL,T,NULL,1157
1447106858,f6ef241ccc676b74b633c78f33d3a319,Trial,39,0,t_sp_8,NULL,NULL,T,NULL,1486
1447106858,f6ef241ccc676b74b633c78f33d3a319,Trial,46,0,t_b_8,NULL,NULL,P,NULL,1222
1447106858,f6ef241ccc676b74b633c78f33d3a319,Trial,47,0,t_b_9,NULL,NULL,P,NULL,1383
1447106858,f6ef241ccc676b74b633c78f33d3a319,Trial,43,0,t_sp_18,NULL,NULL,T,NULL,1151
1447106858,f6ef241ccc676b74b633c78f33d3a319,Trial,36,0,t_b_18,NULL,NULL,P,NULL,1071
1447106858,f6ef241ccc676b74b633c78f33d3a319,Trial,40,0,t_sp_9,NULL,NULL,P,NULL,1648
1447106858,f6ef241ccc676b74b633c78f33d3a319,Trial,51,0,t_sp_1,NULL,NULL,P,NULL,1462
1447106858,f6ef241ccc676b74b633c78f33d3a319,Trial,49,0,t_b_11,NULL,NULL,P,NULL,1350
1447106858,f6ef241ccc676b74b633c78f33d3a319,Trial,41,0,t_sp_10,NULL,NULL,T,NULL,1366
1447106858,f6ef241ccc676b74b633c78f33d3a319,Trial,52,0,t_sp_7,NULL,NULL,T,NULL,974
1447106858,f6ef241ccc676b74b633c78f33d3a319,Trial,45,0,t_b_7,NULL,NULL,P,NULL,1016
1447106858,f6ef241ccc676b74b633c78f33d3a319,Trial,55,0,t_sp_10,NULL,NULL,T,NULL,1255
1447106858,f6ef241ccc676b74b633c78f33d3a319,Trial,53,0,t_sp_8,NULL,NULL,P,NULL,1023
1447106858,f6ef241ccc676b74b633c78f33d3a319,Trial,48,0,t_b_10,NULL,NULL,P,NULL,999
1447106858,f6ef241ccc676b74b633c78f33d3a319,Trial,57,0,t_sp_18,NULL,NULL,T,NULL,989
1447106858,f6ef241ccc676b74b633c78f33d3a319,Trial,34,0,t_b_10,NULL,NULL,P,NULL,975
1447106858,f6ef241ccc676b74b633c78f33d3a319,Trial,47,0,t_b_9,NULL,NULL,P,NULL,1127
1447106858,f6ef241ccc676b74b633c78f33d3a319,Trial,52,0,t_sp_7,NULL,NULL,P,NULL,1191
1447106858,f6ef241ccc676b74b633c78f33d3a319,Trial,55,0,t_sp_10,NULL,NULL,P,NULL,992
1447106858,f6ef241ccc676b74b633c78f33d3a319,Trial,48,0,t_b_10,NULL,NULL,P,NULL,1111
1447106858,f6ef241ccc676b74b633c78f33d3a319,Trial,49,0,t_b_11,NULL,NULL,P,NULL,879
1447106858,f6ef241ccc676b74b633c78f33d3a319,Trial,35,0,t_b_11,NULL,NULL,P,NULL,894
1447106858,f6ef241ccc676b74b633c78f33d3a319,Trial,40,0,t_sp_9,NULL,NULL,P,NULL,1046
1447106858,f6ef241ccc676b74b633c78f33d3a319,Trial,43,0,t_sp_18,NULL,NULL,P,NULL,2023
1447106858,f6ef241ccc676b74b633c78f33d3a319,Trial,51,0,t_sp_1,NULL,NULL,P,NULL,1527
1447106858,f6ef241ccc676b74b633c78f33d3a319,Trial,45,0,t_b_7,NULL,NULL,P,NULL,1038
1447106858,f6ef241ccc676b74b633c78f33d3a319,Trial,42,0,t_sp_11,NULL,NULL,T,NULL,1182
1447106858,f6ef241ccc676b74b633c78f33d3a319,Trial,30,0,t_b_1,NULL,NULL,P,NULL,1039
1447106858,f6ef241ccc676b74b633c78f33d3a319,Trial,38,0,t_sp_7,NULL,NULL,P,NULL,1799
1447106858,f6ef241ccc676b74b633c78f33d3a319,Trial,33,0,t_b_9,NULL,NULL,P,NULL,1104
1447106858,f6ef241ccc676b74b633c78f33d3a319,Trial,41,0,t_sp_10,NULL,NULL,P,NULL,1494
1447106858,f6ef241ccc676b74b633c78f33d3a319,Trial,39,0,t_sp_8,NULL,NULL,P,NULL,1191
1447106858,f6ef241ccc676b74b633c78f33d3a319,Trial,37,0,t_sp_1,NULL,NULL,P,NULL,1063
1447106858,f6ef241ccc676b74b633c78f33d3a319,Trial,56,0,t_sp_11,NULL,NULL,P,NULL,1086
1447106858,f6ef241ccc676b74b633c78f33d3a319,Trial,53,0,t_sp_8,NULL,NULL,P,NULL,1063
1447106858,f6ef241ccc676b74b633c78f33d3a319,Trial,50,0,t_b_18,NULL,NULL,T,NULL,1126
1447106858,f6ef241ccc676b74b633c78f33d3a319,Trial,31,0,t_b_7,NULL,NULL,P,NULL,887
1447106858,f6ef241ccc676b74b633c78f33d3a319,Trial,54,0,t_sp_9,NULL,NULL,P,NULL,1399
1447106858,f6ef241ccc676b74b633c78f33d3a319,Trial,32,0,t_b_8,NULL,NULL,P,NULL,942
1447106858,f6ef241ccc676b74b633c78f33d3a319,Trial,46,0,t_b_8,NULL,NULL,P,NULL,999
1447106858,f6ef241ccc676b74b633c78f33d3a319,Trial,44,0,t_b_1,NULL,NULL,P,NULL,928
1447106858,f6ef241ccc676b74b633c78f33d3a319,Trial,36,0,t_b_18,NULL,NULL,P,NULL,999
1447106858,f6ef241ccc676b74b633c78f33d3a319,Trial,54,0,t_sp_9,NULL,NULL,T,NULL,1521
1447106858,f6ef241ccc676b74b633c78f33d3a319,Trial,55,0,t_sp_10,NULL,NULL,P,NULL,1198
1447106858,f6ef241ccc676b74b633c78f33d3a319,Trial,56,0,t_sp_11,NULL,NULL,T,NULL,1704
1447106858,f6ef241ccc676b74b633c78f33d3a319,Trial,52,0,t_sp_7,NULL,NULL,P,NULL,1063
1447106858,f6ef241ccc676b74b633c78f33d3a319,Trial,49,0,t_b_11,NULL,NULL,P,NULL,984
1447106858,f6ef241ccc676b74b633c78f33d3a319,Trial,46,0,t_b_8,NULL,NULL,P,NULL,1031
1447106858,f6ef241ccc676b74b633c78f33d3a319,Trial,37,0,t_sp_1,NULL,NULL,P,NULL,1015
1447106858,f6ef241ccc676b74b633c78f33d3a319,Trial,42,0,t_sp_11,NULL,NULL,P,NULL,968
1447106858,f6ef241ccc676b74b633c78f33d3a319,Trial,43,0,t_sp_18,NULL,NULL,T,NULL,1454
1447106858,f6ef241ccc676b74b633c78f33d3a319,Trial,38,0,t_sp_7,NULL,NULL,P,NULL,1111
1447106858,f6ef241ccc676b74b633c78f33d3a319,Trial,31,0,t_b_7,NULL,NULL,P,NULL,967
1447106858,f6ef241ccc676b74b633c78f33d3a319,Trial,30,0,t_b_1,NULL,NULL,P,NULL,870
1447106858,f6ef241ccc676b74b633c78f33d3a319,Trial,45,0,t_b_7,NULL,NULL,P,NULL,1567
1447106858,f6ef241ccc676b74b633c78f33d3a319,Trial,41,0,t_sp_10,NULL,NULL,P,NULL,1359
1447106858,f6ef241ccc676b74b633c78f33d3a319,Trial,57,0,t_sp_18,NULL,NULL,T,NULL,903
1447106858,f6ef241ccc676b74b633c78f33d3a319,Trial,40,0,t_sp_9,NULL,NULL,P,NULL,1231
1447106858,f6ef241ccc676b74b633c78f33d3a319,Trial,53,0,t_sp_8,NULL,NULL,P,NULL,2576
1447106858,f6ef241ccc676b74b633c78f33d3a319,Trial,35,0,t_b_11,NULL,NULL,P,NULL,1590
1447106858,f6ef241ccc676b74b633c78f33d3a319,Trial,48,0,t_b_10,NULL,NULL,P,NULL,2575
1447106858,f6ef241ccc676b74b633c78f33d3a319,Trial,50,0,t_b_18,NULL,NULL,T,NULL,1151
1447106858,f6ef241ccc676b74b633c78f33d3a319,Trial,36,0,t_b_18,NULL,NULL,T,NULL,895
1447106858,f6ef241ccc676b74b633c78f33d3a319,Trial,34,0,t_b_10,NULL,NULL,P,NULL,856
1447106858,f6ef241ccc676b74b633c78f33d3a319,Trial,33,0,t_b_9,NULL,NULL,P,NULL,879
1447106858,f6ef241ccc676b74b633c78f33d3a319,Trial,39,0,t_sp_8,NULL,NULL,P,NULL,1080
1447106858,f6ef241ccc676b74b633c78f33d3a319,Trial,44,0,t_b_1,NULL,NULL,P,NULL,1008
1447106858,f6ef241ccc676b74b633c78f33d3a319,Trial,32,0,t_b_8,NULL,NULL,P,NULL,782
1447106858,f6ef241ccc676b74b633c78f33d3a319,Trial,47,0,t_b_9,NULL,NULL,P,NULL,927
1447106858,f6ef241ccc676b74b633c78f33d3a319,Trial,51,0,t_sp_1,NULL,NULL,P,NULL,909
1447106858,f6ef241ccc676b74b633c78f33d3a319,Trial,49,0,t_b_11,NULL,NULL,P,NULL,1253
1447106858,f6ef241ccc676b74b633c78f33d3a319,Trial,55,0,t_sp_10,NULL,NULL,P,NULL,992
1447106858,f6ef241ccc676b74b633c78f33d3a319,Trial,38,0,t_sp_7,NULL,NULL,P,NULL,791
1447106858,f6ef241ccc676b74b633c78f33d3a319,Trial,32,0,t_b_8,NULL,NULL,P,NULL,815
1447106858,f6ef241ccc676b74b633c78f33d3a319,Trial,33,0,t_b_9,NULL,NULL,P,NULL,959
1447106858,f6ef241ccc676b74b633c78f33d3a319,Trial,48,0,t_b_10,NULL,NULL,P,NULL,862
1447106858,f6ef241ccc676b74b633c78f33d3a319,Trial,34,0,t_b_10,NULL,NULL,P,NULL,839
1447106858,f6ef241ccc676b74b633c78f33d3a319,Trial,56,0,t_sp_11,NULL,NULL,P,NULL,952
1447106858,f6ef241ccc676b74b633c78f33d3a319,Trial,36,0,t_b_18,NULL,NULL,T,NULL,1295
1447106858,f6ef241ccc676b74b633c78f33d3a319,Trial,35,0,t_b_11,NULL,NULL,P,NULL,2143
1447106858,f6ef241ccc676b74b633c78f33d3a319,Trial,47,0,t_b_9,NULL,NULL,P,NULL,1206
1447106858,f6ef241ccc676b74b633c78f33d3a319,Trial,44,0,t_b_1,NULL,NULL,P,NULL,1175
1447106858,f6ef241ccc676b74b633c78f33d3a319,Trial,45,0,t_b_7,NULL,NULL,P,NULL,783
1447106858,f6ef241ccc676b74b633c78f33d3a319,Trial,52,0,t_sp_7,NULL,NULL,P,NULL,1152
1447106858,f6ef241ccc676b74b633c78f33d3a319,Trial,43,0,t_sp_18,NULL,NULL,T,NULL,1230
1447106858,f6ef241ccc676b74b633c78f33d3a319,Trial,42,0,t_sp_11,NULL,NULL,T,NULL,1112
1447106858,f6ef241ccc676b74b633c78f33d3a319,Trial,40,0,t_sp_9,NULL,NULL,P,NULL,1416
1447106858,f6ef241ccc676b74b633c78f33d3a319,Trial,37,0,t_sp_1,NULL,NULL,P,NULL,1527
1447106858,f6ef241ccc676b74b633c78f33d3a319,Trial,51,0,t_sp_1,NULL,NULL,P,NULL,1127
1447106858,f6ef241ccc676b74b633c78f33d3a319,Trial,57,0,t_sp_18,NULL,NULL,T,NULL,1031
1447106858,f6ef241ccc676b74b633c78f33d3a319,Trial,46,0,t_b_8,NULL,NULL,T,NULL,1063
1447106858,f6ef241ccc676b74b633c78f33d3a319,Trial,53,0,t_sp_8,NULL,NULL,T,NULL,1031
1447106858,f6ef241ccc676b74b633c78f33d3a319,Trial,39,0,t_sp_8,NULL,NULL,P,NULL,928
1447106858,f6ef241ccc676b74b633c78f33d3a319,Trial,30,0,t_b_1,NULL,NULL,P,NULL,1336
1447106858,f6ef241ccc676b74b633c78f33d3a319,Trial,54,0,t_sp_9,NULL,NULL,T,NULL,1278
1447106858,f6ef241ccc676b74b633c78f33d3a319,Trial,50,0,t_b_18,NULL,NULL,T,NULL,895
1447106858,f6ef241ccc676b74b633c78f33d3a319,Trial,31,0,t_b_7,NULL,NULL,T,NULL,1007
1447106858,f6ef241ccc676b74b633c78f33d3a319,Trial,41,0,t_sp_10,NULL,NULL,P,NULL,1030
1447106858,f6ef241ccc676b74b633c78f33d3a319,Trial,50,0,t_b_18,NULL,NULL,P,NULL,1161
1447106858,f6ef241ccc676b74b633c78f33d3a319,Trial,33,0,t_b_9,NULL,NULL,P,NULL,1368
1447106858,f6ef241ccc676b74b633c78f33d3a319,Trial,42,0,t_sp_11,NULL,NULL,P,NULL,3311
1447106858,f6ef241ccc676b74b633c78f33d3a319,Trial,37,0,t_sp_1,NULL,NULL,P,NULL,1391
1447106858,f6ef241ccc676b74b633c78f33d3a319,Trial,39,0,t_sp_8,NULL,NULL,P,NULL,1663
1447106858,f6ef241ccc676b74b633c78f33d3a319,Trial,46,0,t_b_8,NULL,NULL,P,NULL,959
1447106858,f6ef241ccc676b74b633c78f33d3a319,Trial,53,0,t_sp_8,NULL,NULL,P,NULL,1030
1447106858,f6ef241ccc676b74b633c78f33d3a319,Trial,51,0,t_sp_1,NULL,NULL,P,NULL,1056
1447106858,f6ef241ccc676b74b633c78f33d3a319,Trial,34,0,t_b_10,NULL,NULL,T,NULL,1183
1447106858,f6ef241ccc676b74b633c78f33d3a319,Trial,52,0,t_sp_7,NULL,NULL,P,NULL,967
1447106858,f6ef241ccc676b74b633c78f33d3a319,Trial,35,0,t_b_11,NULL,NULL,T,NULL,854
1447106858,f6ef241ccc676b74b633c78f33d3a319,Trial,40,0,t_sp_9,NULL,NULL,P,NULL,975
1447106858,f6ef241ccc676b74b633c78f33d3a319,Trial,55,0,t_sp_10,NULL,NULL,P,NULL,933
1447106858,f6ef241ccc676b74b633c78f33d3a319,Trial,57,0,t_sp_18,NULL,NULL,T,NULL,983
1447106858,f6ef241ccc676b74b633c78f33d3a319,Trial,49,0,t_b_11,NULL,NULL,P,NULL,951
1447106858,f6ef241ccc676b74b633c78f33d3a319,Trial,36,0,t_b_18,NULL,NULL,T,NULL,839
1447106858,f6ef241ccc676b74b633c78f33d3a319,Trial,38,0,t_sp_7,NULL,NULL,P,NULL,1246
1447106858,f6ef241ccc676b74b633c78f33d3a319,Trial,54,0,t_sp_9,NULL,NULL,P,NULL,905
1447106858,f6ef241ccc676b74b633c78f33d3a319,Trial,32,0,t_b_8,NULL,NULL,P,NULL,1127
1447106858,f6ef241ccc676b74b633c78f33d3a319,Trial,30,0,t_b_1,NULL,NULL,P,NULL,1078
1447106858,f6ef241ccc676b74b633c78f33d3a319,Trial,31,0,t_b_7,NULL,NULL,P,NULL,1319
1447106858,f6ef241ccc676b74b633c78f33d3a319,Trial,48,0,t_b_10,NULL,NULL,P,NULL,2256
1447106858,f6ef241ccc676b74b633c78f33d3a319,Trial,43,0,t_sp_18,NULL,NULL,T,NULL,982
1447106858,f6ef241ccc676b74b633c78f33d3a319,Trial,47,0,t_b_9,NULL,NULL,P,NULL,864
1447106858,f6ef241ccc676b74b633c78f33d3a319,Trial,44,0,t_b_1,NULL,NULL,P,NULL,814
1447106858,f6ef241ccc676b74b633c78f33d3a319,Trial,45,0,t_b_7,NULL,NULL,P,NULL,807
1447106858,f6ef241ccc676b74b633c78f33d3a319,Trial,41,0,t_sp_10,NULL,NULL,T,NULL,1319
1447106858,f6ef241ccc676b74b633c78f33d3a319,Trial,56,0,t_sp_11,NULL,NULL,T,NULL,1023
1447106858,f6ef241ccc676b74b633c78f33d3a319,Trial,43,0,t_sp_18,NULL,NULL,T,NULL,2022
1447106858,f6ef241ccc676b74b633c78f33d3a319,Trial,39,0,t_sp_8,NULL,NULL,P,NULL,1478
1447106858,f6ef241ccc676b74b633c78f33d3a319,Trial,51,0,t_sp_1,NULL,NULL,P,NULL,1102
1447106858,f6ef241ccc676b74b633c78f33d3a319,Trial,54,0,t_sp_9,NULL,NULL,P,NULL,3767
1447106858,f6ef241ccc676b74b633c78f33d3a319,Trial,31,0,t_b_7,NULL,NULL,P,NULL,1544
1447106858,f6ef241ccc676b74b633c78f33d3a319,Trial,34,0,t_b_10,NULL,NULL,T,NULL,862
1447106858,f6ef241ccc676b74b633c78f33d3a319,Trial,53,0,t_sp_8,NULL,NULL,P,NULL,911
1447106858,f6ef241ccc676b74b633c78f33d3a319,Trial,44,0,t_b_1,NULL,NULL,P,NULL,998
1447106858,f6ef241ccc676b74b633c78f33d3a319,Trial,45,0,t_b_7,NULL,NULL,P,NULL,1112
1447106858,f6ef241ccc676b74b633c78f33d3a319,Trial,30,0,t_b_1,NULL,NULL,P,NULL,904
1447106858,f6ef241ccc676b74b633c78f33d3a319,Trial,42,0,t_sp_11,NULL,NULL,T,NULL,1078
1447106858,f6ef241ccc676b74b633c78f33d3a319,Trial,57,0,t_sp_18,NULL,NULL,T,NULL,2631
1447106858,f6ef241ccc676b74b633c78f33d3a319,Trial,50,0,t_b_18,NULL,NULL,P,NULL,2303
1447106858,f6ef241ccc676b74b633c78f33d3a319,Trial,35,0,t_b_11,NULL,NULL,P,NULL,1079
1447106858,f6ef241ccc676b74b633c78f33d3a319,Trial,40,0,t_sp_9,NULL,NULL,P,NULL,1286
1447106858,f6ef241ccc676b74b633c78f33d3a319,Trial,36,0,t_b_18,NULL,NULL,T,NULL,1023
1447106858,f6ef241ccc676b74b633c78f33d3a319,Trial,38,0,t_sp_7,NULL,NULL,T,NULL,1143
1447106858,f6ef241ccc676b74b633c78f33d3a319,Trial,47,0,t_b_9,NULL,NULL,T,NULL,1143
1447106858,f6ef241ccc676b74b633c78f33d3a319,Trial,37,0,t_sp_1,NULL,NULL,P,NULL,1240
1447106858,f6ef241ccc676b74b633c78f33d3a319,Trial,46,0,t_b_8,NULL,NULL,P,NULL,1680
1447106858,f6ef241ccc676b74b633c78f33d3a319,Trial,48,0,t_b_10,NULL,NULL,T,NULL,1230
1447106858,f6ef241ccc676b74b633c78f33d3a319,Trial,33,0,t_b_9,NULL,NULL,P,NULL,1054
1447106858,f6ef241ccc676b74b633c78f33d3a319,Trial,56,0,t_sp_11,NULL,NULL,T,NULL,1319
1447106858,f6ef241ccc676b74b633c78f33d3a319,Trial,41,0,t_sp_10,NULL,NULL,T,NULL,1142
1447106858,f6ef241ccc676b74b633c78f33d3a319,Trial,52,0,t_sp_7,NULL,NULL,P,NULL,1320
1447106858,f6ef241ccc676b74b633c78f33d3a319,Trial,55,0,t_sp_10,NULL,NULL,T,NULL,1048
1447106858,f6ef241ccc676b74b633c78f33d3a319,Trial,32,0,t_b_8,NULL,NULL,P,NULL,871
1447106858,f6ef241ccc676b74b633c78f33d3a319,Trial,49,0,t_b_11,NULL,NULL,T,NULL,913
1447106858,f6ef241ccc676b74b633c78f33d3a319,Trial,48,0,t_b_10,NULL,NULL,T,NULL,2154
1447106858,f6ef241ccc676b74b633c78f33d3a319,Trial,43,0,t_sp_18,NULL,NULL,T,NULL,1119
1447106858,f6ef241ccc676b74b633c78f33d3a319,Trial,41,0,t_sp_10,NULL,NULL,P,NULL,1271
1447106858,f6ef241ccc676b74b633c78f33d3a319,Trial,53,0,t_sp_8,NULL,NULL,P,NULL,1320
1447106858,f6ef241ccc676b74b633c78f33d3a319,Trial,38,0,t_sp_7,NULL,NULL,P,NULL,1782
1447106858,f6ef241ccc676b74b633c78f33d3a319,Trial,37,0,t_sp_1,NULL,NULL,P,NULL,1174
1447106858,f6ef241ccc676b74b633c78f33d3a319,Trial,34,0,t_b_10,NULL,NULL,P,NULL,1039
1447106858,f6ef241ccc676b74b633c78f33d3a319,Trial,32,0,t_b_8,NULL,NULL,P,NULL,1477
1447106858,f6ef241ccc676b74b633c78f33d3a319,Trial,49,0,t_b_11,NULL,NULL,T,NULL,1326
1447106858,f6ef241ccc676b74b633c78f33d3a319,Trial,40,0,t_sp_9,NULL,NULL,P,NULL,1247
1447106858,f6ef241ccc676b74b633c78f33d3a319,Trial,39,0,t_sp_8,NULL,NULL,P,NULL,1239
1447106858,f6ef241ccc676b74b633c78f33d3a319,Trial,50,0,t_b_18,NULL,NULL,T,NULL,999
1447106858,f6ef241ccc676b74b633c78f33d3a319,Trial,44,0,t_b_1,NULL,NULL,P,NULL,1071
1447106858,f6ef241ccc676b74b633c78f33d3a319,Trial,30,0,t_b_1,NULL,NULL,P,NULL,1066
1447106858,f6ef241ccc676b74b633c78f33d3a319,Trial,46,0,t_b_8,NULL,NULL,P,NULL,1233
1447106858,f6ef241ccc676b74b633c78f33d3a319,Trial,47,0,t_b_9,NULL,NULL,P,NULL,857
1447106858,f6ef241ccc676b74b633c78f33d3a319,Trial,36,0,t_b_18,NULL,NULL,T,NULL,1863
1447106858,f6ef241ccc676b74b633c78f33d3a319,Trial,42,0,t_sp_11,NULL,NULL,P,NULL,1256
1447106858,f6ef241ccc676b74b633c78f33d3a319,Trial,31,0,t_b_7,NULL,NULL,P,NULL,1697
1447106858,f6ef241ccc676b74b633c78f33d3a319,Trial,45,0,t_b_7,NULL,NULL,P,NULL,1207
1447106858,f6ef241ccc676b74b633c78f33d3a319,Trial,57,0,t_sp_18,NULL,NULL,T,NULL,1031
1447106858,f6ef241ccc676b74b633c78f33d3a319,Trial,35,0,t_b_11,NULL,NULL,P,NULL,1359
1447106858,f6ef241ccc676b74b633c78f33d3a319,Trial,33,0,t_b_9,NULL,NULL,P,NULL,896
1447106858,f6ef241ccc676b74b633c78f33d3a319,Trial,51,0,t_sp_1,NULL,NULL,P,NULL,1248
1447106858,f6ef241ccc676b74b633c78f33d3a319,Trial,55,0,t_sp_10,NULL,NULL,P,NULL,958
1447106858,f6ef241ccc676b74b633c78f33d3a319,Trial,54,0,t_sp_9,NULL,NULL,P,NULL,1151
1447106858,f6ef241ccc676b74b633c78f33d3a319,Trial,56,0,t_sp_11,NULL,NULL,P,NULL,1159
1447106858,f6ef241ccc676b74b633c78f33d3a319,Trial,52,0,t_sp_7,NULL,NULL,T,NULL,1208
1447106858,f6ef241ccc676b74b633c78f33d3a319,Trial,36,0,t_b_18,NULL,NULL,T,NULL,1422
1447106858,f6ef241ccc676b74b633c78f33d3a319,Trial,32,0,t_b_8,NULL,NULL,P,NULL,1088
1447106858,f6ef241ccc676b74b633c78f33d3a319,Trial,42,0,t_sp_11,NULL,NULL,T,NULL,1063
1447106858,f6ef241ccc676b74b633c78f33d3a319,Trial,44,0,t_b_1,NULL,NULL,T,NULL,992
1447106858,f6ef241ccc676b74b633c78f33d3a319,Trial,48,0,t_b_10,NULL,NULL,T,NULL,921
1447106858,f6ef241ccc676b74b633c78f33d3a319,Trial,54,0,t_sp_9,NULL,NULL,T,NULL,950
1447106858,f6ef241ccc676b74b633c78f33d3a319,Trial,57,0,t_sp_18,NULL,NULL,T,NULL,1313
1447106858,f6ef241ccc676b74b633c78f33d3a319,Trial,33,0,t_b_9,NULL,NULL,P,NULL,2071
1447106858,f6ef241ccc676b74b633c78f33d3a319,Trial,37,0,t_sp_1,NULL,NULL,P,NULL,1151
1447106858,f6ef241ccc676b74b633c78f33d3a319,Trial,38,0,t_sp_7,NULL,NULL,P,NULL,1102
1447106858,f6ef241ccc676b74b633c78f33d3a319,Trial,49,0,t_b_11,NULL,NULL,T,NULL,1439
1447106858,f6ef241ccc676b74b633c78f33d3a319,Trial,56,0,t_sp_11,NULL,NULL,T,NULL,1303
1447106858,f6ef241ccc676b74b633c78f33d3a319,Trial,43,0,t_sp_18,NULL,NULL,T,NULL,1279
1447106858,f6ef241ccc676b74b633c78f33d3a319,Trial,51,0,t_sp_1,NULL,NULL,P,NULL,1232
1447106858,f6ef241ccc676b74b633c78f33d3a319,Trial,30,0,t_b_1,NULL,NULL,P,NULL,1559
1447106858,f6ef241ccc676b74b633c78f33d3a319,Trial,40,0,t_sp_9,NULL,NULL,T,NULL,1255
1447106858,f6ef241ccc676b74b633c78f33d3a319,Trial,50,0,t_b_18,NULL,NULL,T,NULL,1328
1447106858,f6ef241ccc676b74b633c78f33d3a319,Trial,47,0,t_b_9,NULL,NULL,P,NULL,1543
1447106858,f6ef241ccc676b74b633c78f33d3a319,Trial,52,0,t_sp_7,NULL,NULL,T,NULL,1272
1447106858,f6ef241ccc676b74b633c78f33d3a319,Trial,34,0,t_b_10,NULL,NULL,P,NULL,1079
1447106858,f6ef241ccc676b74b633c78f33d3a319,Trial,55,0,t_sp_10,NULL,NULL,T,NULL,1184
1447106858,f6ef241ccc676b74b633c78f33d3a319,Trial,45,0,t_b_7,NULL,NULL,P,NULL,1175
1447106858,f6ef241ccc676b74b633c78f33d3a319,Trial,31,0,t_b_7,NULL,NULL,P,NULL,1208
1447106858,f6ef241ccc676b74b633c78f33d3a319,Trial,35,0,t_b_11,NULL,NULL,T,NULL,1127
1447106858,f6ef241ccc676b74b633c78f33d3a319,Trial,41,0,t_sp_10,NULL,NULL,T,NULL,1048
1447106858,f6ef241ccc676b74b633c78f33d3a319,Trial,53,0,t_sp_8,NULL,NULL,T,NULL,1153
1447106858,f6ef241ccc676b74b633c78f33d3a319,Trial,46,0,t_b_8,NULL,NULL,P,NULL,1359
1447106858,f6ef241ccc676b74b633c78f33d3a319,Trial,39,0,t_sp_8,NULL,NULL,T,NULL,840
1447106858,f6ef241ccc676b74b633c78f33d3a319,Trial,50,0,t_b_18,NULL,NULL,T,NULL,1126
1447106858,f6ef241ccc676b74b633c78f33d3a319,Trial,55,0,t_sp_10,NULL,NULL,P,NULL,1133
1447106858,f6ef241ccc676b74b633c78f33d3a319,Trial,34,0,t_b_10,NULL,NULL,P,NULL,979
1447106858,f6ef241ccc676b74b633c78f33d3a319,Trial,32,0,t_b_8,NULL,NULL,P,NULL,952
1447106858,f6ef241ccc676b74b633c78f33d3a319,Trial,44,0,t_b_1,NULL,NULL,P,NULL,2000
1447106858,f6ef241ccc676b74b633c78f33d3a319,Trial,45,0,t_b_7,NULL,NULL,P,NULL,1036
1447106858,f6ef241ccc676b74b633c78f33d3a319,Trial,36,0,t_b_18,NULL,NULL,T,NULL,845
1447106858,f6ef241ccc676b74b633c78f33d3a319,Trial,51,0,t_sp_1,NULL,NULL,P,NULL,1167
1447106858,f6ef241ccc676b74b633c78f33d3a319,Trial,31,0,t_b_7,NULL,NULL,P,NULL,993
1447106858,f6ef241ccc676b74b633c78f33d3a319,Trial,40,0,t_sp_9,NULL,NULL,T,NULL,1480
1447106858,f6ef241ccc676b74b633c78f33d3a319,Trial,35,0,t_b_11,NULL,NULL,T,NULL,2096
1447106858,f6ef241ccc676b74b633c78f33d3a319,Trial,38,0,t_sp_7,NULL,NULL,P,NULL,1151
1447106858,f6ef241ccc676b74b633c78f33d3a319,Trial,30,0,t_b_1,NULL,NULL,P,NULL,950
1447106858,f6ef241ccc676b74b633c78f33d3a319,Trial,47,0,t_b_9,NULL,NULL,P,NULL,1016
1447106858,f6ef241ccc676b74b633c78f33d3a319,Trial,56,0,t_sp_11,NULL,NULL,P,NULL,1749
1447106858,f6ef241ccc676b74b633c78f33d3a319,Trial,48,0,t_b_10,NULL,NULL,T,NULL,975
1447106858,f6ef241ccc676b74b633c78f33d3a319,Trial,46,0,t_b_8,NULL,NULL,P,NULL,920
1447106858,f6ef241ccc676b74b633c78f33d3a319,Trial,39,0,t_sp_8,NULL,NULL,P,NULL,1031
1447106858,f6ef241ccc676b74b633c78f33d3a319,Trial,41,0,t_sp_10,NULL,NULL,T,NULL,1033
1447106858,f6ef241ccc676b74b633c78f33d3a319,Trial,57,0,t_sp_18,NULL,NULL,T,NULL,957
1447106858,f6ef241ccc676b74b633c78f33d3a319,Trial,42,0,t_sp_11,NULL,NULL,T,NULL,976
1447106858,f6ef241ccc676b74b633c78f33d3a319,Trial,37,0,t_sp_1,NULL,NULL,P,NULL,1080
1447106858,f6ef241ccc676b74b633c78f33d3a319,Trial,52,0,t_sp_7,NULL,NULL,T,NULL,1199
1447106858,f6ef241ccc676b74b633c78f33d3a319,Trial,33,0,t_b_9,NULL,NULL,P,NULL,1435
1447106858,f6ef241ccc676b74b633c78f33d3a319,Trial,43,0,t_sp_18,NULL,NULL,T,NULL,1163
1447106858,f6ef241ccc676b74b633c78f33d3a319,Trial,54,0,t_sp_9,NULL,NULL,T,NULL,1266
1447106858,f6ef241ccc676b74b633c78f33d3a319,Trial,53,0,t_sp_8,NULL,NULL,T,NULL,1264
1447106858,f6ef241ccc676b74b633c78f33d3a319,Trial,49,0,t_b_11,NULL,NULL,T,NULL,1692
1447106858,f6ef241ccc676b74b633c78f33d3a319,Trial,31,0,t_b_7,NULL,NULL,P,NULL,1415
1447106858,f6ef241ccc676b74b633c78f33d3a319,Trial,46,0,t_b_8,NULL,NULL,P,NULL,1274
1447106858,f6ef241ccc676b74b633c78f33d3a319,Trial,53,0,t_sp_8,NULL,NULL,T,NULL,1532
1447106858,f6ef241ccc676b74b633c78f33d3a319,Trial,47,0,t_b_9,NULL,NULL,T,NULL,1430
1447106858,f6ef241ccc676b74b633c78f33d3a319,Trial,54,0,t_sp_9,NULL,NULL,T,NULL,1221
1447106858,f6ef241ccc676b74b633c78f33d3a319,Trial,50,0,t_b_18,NULL,NULL,P,NULL,1230
1447106858,f6ef241ccc676b74b633c78f33d3a319,Trial,34,0,t_b_10,NULL,NULL,P,NULL,885
1447106858,f6ef241ccc676b74b633c78f33d3a319,Trial,56,0,t_sp_11,NULL,NULL,T,NULL,896
1447106858,f6ef241ccc676b74b633c78f33d3a319,Trial,35,0,t_b_11,NULL,NULL,P,NULL,1409
1447106858,f6ef241ccc676b74b633c78f33d3a319,Trial,42,0,t_sp_11,NULL,NULL,T,NULL,1027
1447106858,f6ef241ccc676b74b633c78f33d3a319,Trial,49,0,t_b_11,NULL,NULL,P,NULL,1027
1447106858,f6ef241ccc676b74b633c78f33d3a319,Trial,41,0,t_sp_10,NULL,NULL,T,NULL,910
1447106858,f6ef241ccc676b74b633c78f33d3a319,Trial,37,0,t_sp_1,NULL,NULL,P,NULL,1497
1447106858,f6ef241ccc676b74b633c78f33d3a319,Trial,43,0,t_sp_18,NULL,NULL,T,NULL,1039
1447106858,f6ef241ccc676b74b633c78f33d3a319,Trial,39,0,t_sp_8,NULL,NULL,P,NULL,1077
1447106858,f6ef241ccc676b74b633c78f33d3a319,Trial,38,0,t_sp_7,NULL,NULL,T,NULL,1057
1447106858,f6ef241ccc676b74b633c78f33d3a319,Trial,30,0,t_b_1,NULL,NULL,P,NULL,1136
1447106858,f6ef241ccc676b74b633c78f33d3a319,Trial,55,0,t_sp_10,NULL,NULL,T,NULL,972
1447106858,f6ef241ccc676b74b633c78f33d3a319,Trial,44,0,t_b_1,NULL,NULL,P,NULL,1293
1447106858,f6ef241ccc676b74b633c78f33d3a319,Trial,52,0,t_sp_7,NULL,NULL,T,NULL,943
1447106858,f6ef241ccc676b74b633c78f33d3a319,Trial,32,0,t_b_8,NULL,NULL,P,NULL,1250
1447106858,f6ef241ccc676b74b633c78f33d3a319,Trial,51,0,t_sp_1,NULL,NULL,T,NULL,1226
1447106858,f6ef241ccc676b74b633c78f33d3a319,Trial,36,0,t_b_18,NULL,NULL,T,NULL,966
1447106858,f6ef241ccc676b74b633c78f33d3a319,Trial,57,0,t_sp_18,NULL,NULL,T,NULL,967
1447106858,f6ef241ccc676b74b633c78f33d3a319,Trial,45,0,t_b_7,NULL,NULL,P,NULL,828
1447106858,f6ef241ccc676b74b633c78f33d3a319,Trial,48,0,t_b_10,NULL,NULL,P,NULL,827
1447106858,f6ef241ccc676b74b633c78f33d3a319,Trial,33,0,t_b_9,NULL,NULL,P,NULL,1013
1447106858,f6ef241ccc676b74b633c78f33d3a319,Trial,40,0,t_sp_9,NULL,NULL,T,NULL,827
1447106858,f6ef241ccc676b74b633c78f33d3a319,Trial,52,0,t_sp_7,NULL,NULL,NULL,NULL,4998
1447106858,f6ef241ccc676b74b633c78f33d3a319,Trial,43,0,t_sp_18,NULL,NULL,T,NULL,3458
1447106858,f6ef241ccc676b74b633c78f33d3a319,Trial,54,0,t_sp_9,NULL,NULL,T,NULL,1430
1447106858,f6ef241ccc676b74b633c78f33d3a319,Trial,53,0,t_sp_8,NULL,NULL,T,NULL,1835
1447106858,f6ef241ccc676b74b633c78f33d3a319,Trial,45,0,t_b_7,NULL,NULL,T,NULL,1525
1447106858,f6ef241ccc676b74b633c78f33d3a319,Trial,57,0,t_sp_18,NULL,NULL,T,NULL,1153
1447106858,f6ef241ccc676b74b633c78f33d3a319,Trial,46,0,t_b_8,NULL,NULL,P,NULL,1079
1447106858,f6ef241ccc676b74b633c78f33d3a319,Trial,47,0,t_b_9,NULL,NULL,T,NULL,802
1447106858,f6ef241ccc676b74b633c78f33d3a319,Trial,55,0,t_sp_10,NULL,NULL,T,NULL,920
1447106858,f6ef241ccc676b74b633c78f33d3a319,Trial,30,0,t_b_1,NULL,NULL,P,NULL,1026
1447106858,f6ef241ccc676b74b633c78f33d3a319,Trial,41,0,t_sp_10,NULL,NULL,T,NULL,880
1447106858,f6ef241ccc676b74b633c78f33d3a319,Trial,56,0,t_sp_11,NULL,NULL,T,NULL,890
1447106858,f6ef241ccc676b74b633c78f33d3a319,Trial,44,0,t_b_1,NULL,NULL,P,NULL,1283
1447106858,f6ef241ccc676b74b633c78f33d3a319,Trial,37,0,t_sp_1,NULL,NULL,T,NULL,827
1447106858,f6ef241ccc676b74b633c78f33d3a319,Trial,34,0,t_b_10,NULL,NULL,T,NULL,886
1447106858,f6ef241ccc676b74b633c78f33d3a319,Trial,38,0,t_sp_7,NULL,NULL,T,NULL,973
1447106858,f6ef241ccc676b74b633c78f33d3a319,Trial,32,0,t_b_8,NULL,NULL,P,NULL,1469
1447106858,f6ef241ccc676b74b633c78f33d3a319,Trial,36,0,t_b_18,NULL,NULL,T,NULL,827
1447106858,f6ef241ccc676b74b633c78f33d3a319,Trial,42,0,t_sp_11,NULL,NULL,T,NULL,980
1447106858,f6ef241ccc676b74b633c78f33d3a319,Trial,31,0,t_b_7,NULL,NULL,P,NULL,750
1447106858,f6ef241ccc676b74b633c78f33d3a319,Trial,49,0,t_b_11,NULL,NULL,T,NULL,1330
1447106858,f6ef241ccc676b74b633c78f33d3a319,Trial,35,0,t_b_11,NULL,NULL,T,NULL,829
1447106858,f6ef241ccc676b74b633c78f33d3a319,Trial,39,0,t_sp_8,NULL,NULL,T,NULL,833
1447106858,f6ef241ccc676b74b633c78f33d3a319,Trial,50,0,t_b_18,NULL,NULL,T,NULL,1190
1447106858,f6ef241ccc676b74b633c78f33d3a319,Trial,48,0,t_b_10,NULL,NULL,T,NULL,1291
1447106858,f6ef241ccc676b74b633c78f33d3a319,Trial,40,0,t_sp_9,NULL,NULL,P,NULL,1169
1447106858,f6ef241ccc676b74b633c78f33d3a319,Trial,33,0,t_b_9,NULL,NULL,T,NULL,1197
1447106858,f6ef241ccc676b74b633c78f33d3a319,Trial,51,0,t_sp_1,NULL,NULL,P,NULL,1197
1447106858,f6ef241ccc676b74b633c78f33d3a319,Trial,46,0,t_b_8,NULL,NULL,P,NULL,1161
1447106858,f6ef241ccc676b74b633c78f33d3a319,Trial,30,0,t_b_1,NULL,NULL,P,NULL,975
1447106858,f6ef241ccc676b74b633c78f33d3a319,Trial,57,0,t_sp_18,NULL,NULL,T,NULL,1022
1447106858,f6ef241ccc676b74b633c78f33d3a319,Trial,56,0,t_sp_11,NULL,NULL,T,NULL,1642
1447106858,f6ef241ccc676b74b633c78f33d3a319,Trial,31,0,t_b_7,NULL,NULL,P,NULL,1722
1447106858,f6ef241ccc676b74b633c78f33d3a319,Trial,45,0,t_b_7,NULL,NULL,P,NULL,830
1447106858,f6ef241ccc676b74b633c78f33d3a319,Trial,32,0,t_b_8,NULL,NULL,P,NULL,800
1447106858,f6ef241ccc676b74b633c78f33d3a319,Trial,50,0,t_b_18,NULL,NULL,T,NULL,1258
1447106858,f6ef241ccc676b74b633c78f33d3a319,Trial,55,0,t_sp_10,NULL,NULL,T,NULL,1040
1447106858,f6ef241ccc676b74b633c78f33d3a319,Trial,53,0,t_sp_8,NULL,NULL,T,NULL,958
1447106858,f6ef241ccc676b74b633c78f33d3a319,Trial,42,0,t_sp_11,NULL,NULL,P,NULL,1089
1447106858,f6ef241ccc676b74b633c78f33d3a319,Trial,41,0,t_sp_10,NULL,NULL,T,NULL,804
1447106858,f6ef241ccc676b74b633c78f33d3a319,Trial,49,0,t_b_11,NULL,NULL,T,NULL,948
1447106858,f6ef241ccc676b74b633c78f33d3a319,Trial,39,0,t_sp_8,NULL,NULL,T,NULL,1030
1447106858,f6ef241ccc676b74b633c78f33d3a319,Trial,33,0,t_b_9,NULL,NULL,P,NULL,899
1447106858,f6ef241ccc676b74b633c78f33d3a319,Trial,52,0,t_sp_7,NULL,NULL,P,NULL,1418
1447106858,f6ef241ccc676b74b633c78f33d3a319,Trial,38,0,t_sp_7,NULL,NULL,P,NULL,1073
1447106858,f6ef241ccc676b74b633c78f33d3a319,Trial,48,0,t_b_10,NULL,NULL,T,NULL,864
1447106858,f6ef241ccc676b74b633c78f33d3a319,Trial,47,0,t_b_9,NULL,NULL,P,NULL,1340
1447106858,f6ef241ccc676b74b633c78f33d3a319,Trial,36,0,t_b_18,NULL,NULL,T,NULL,1264
1447106858,f6ef241ccc676b74b633c78f33d3a319,Trial,51,0,t_sp_1,NULL,NULL,P,NULL,1046
1447106858,f6ef241ccc676b74b633c78f33d3a319,Trial,40,0,t_sp_9,NULL,NULL,P,NULL,1007
1447106858,f6ef241ccc676b74b633c78f33d3a319,Trial,34,0,t_b_10,NULL,NULL,P,NULL,1326
1447106858,f6ef241ccc676b74b633c78f33d3a319,Trial,37,0,t_sp_1,NULL,NULL,P,NULL,1111
1447106858,f6ef241ccc676b74b633c78f33d3a319,Trial,54,0,t_sp_9,NULL,NULL,P,NULL,1640
1447106858,f6ef241ccc676b74b633c78f33d3a319,Trial,35,0,t_b_11,NULL,NULL,T,NULL,1110
1447106858,f6ef241ccc676b74b633c78f33d3a319,Trial,44,0,t_b_1,NULL,NULL,P,NULL,1074
1447106858,f6ef241ccc676b74b633c78f33d3a319,Trial,43,0,t_sp_18,NULL,NULL,T,NULL,1267
# Columns below this comment are as follows:
# 1. Time results were received.
# 2. MD5 hash of participant's IP address.
# 3. Controller name.
# 4. Item number.
# 5. Element number.
# 6. Type.
# 7. Group.
# 8. Field name.
# 9. Field value.
1447106858,f6ef241ccc676b74b633c78f33d3a319,Form,17,0,debrief,NULL,comments,
1447106858,f6ef241ccc676b74b633c78f33d3a319,Form,17,0,debrief,NULL,_REACTION_TIME_,2462
1447106858,f6ef241ccc676b74b633c78f33d3a319,Form,18,0,exit2,NULL,randomfield,y4Mgxn5u
1447106858,f6ef241ccc676b74b633c78f33d3a319,Form,18,0,exit2,NULL,worker_id,A2ULFQIDMMWNC6
1447106858,f6ef241ccc676b74b633c78f33d3a319,Form,18,0,exit2,NULL,identifier,y4Mgxn5u
1447106858,f6ef241ccc676b74b633c78f33d3a319,Form,18,0,exit2,NULL,_REACTION_TIME_,24044
#
# Results on Monday November 09 2015 22:25:51 UTC.
# USER AGENT: Mozilla/5.0 (Windows NT 6.1; WOW64; rv:42.0) Gecko/20100101 Firefox/42.0
# Design number was non-random = 2
#
# Columns below this comment are as follows:
# 1. Time results were received.
# 2. MD5 hash of participant's IP address.
# 3. Controller name.
# 4. Item number.
# 5. Element number.
# 6. Type.
# 7. Group.
# 8. Field name.
# 9. Field value.
1447107952,64a5c6b55df8372a29cf32beb9f879c4,Form,2,0,intro,NULL,consentanswer,ptP,T
1447107952,64a5c6b55df8372a29cf32beb9f879c4,Form,2,0,intro,NULL,_REACTION_TIME_,6814
1447107952,64a5c6b55df8372a29cf32beb9f879c4,Form,3,0,questionnaire,NULL,write_something,
1447107952,64a5c6b55df8372a29cf32beb9f879c4,Form,3,0,questionnaire,NULL,NatLang,eng
1447107952,64a5c6b55df8372a29cf32beb9f879c4,Form,3,0,questionnaire,NULL,disorder,disorderno
1447107952,64a5c6b55df8372a29cf32beb9f879c4,Form,3,0,questionnaire,NULL,_REACTION_TIME_,7226
1447107952,64a5c6b55df8372a29cf32beb9f879c4,Form,4,0,headphones,NULL,headphonebrand,Sony
1447107952,64a5c6b55df8372a29cf32beb9f879c4,Form,4,0,headphones,NULL,headphonemodel,MDR-V6
1447107952,64a5c6b55df8372a29cf32beb9f879c4,Form,4,0,headphones,NULL,headphoneyesno,headphoneyes
1447107952,64a5c6b55df8372a29cf32beb9f879c4,Form,4,0,headphones,NULL,_REACTION_TIME_,14534
# Columns below this comment are as follows:
# 1. Time results were received.
# 2. MD5 hash of participant's IP address.
# 3. Controller name.
# 4. Item number.
# 5. Element number.
# 6. Type.
# 7. Group.
# 8. Question (NULL if none).
# 9. Answer.
# 10. Whether or not answer was correct (NULL if N/A).
# 11. Time taken to answer.
1447107952,64a5c6b55df8372a29cf32beb9f879c4,Trial,25,0,pnt_sp_18,NULL,&nbsp;&nbsp;&nbsp;&nbsp;click on the sound,P,NULL,5095
1447107952,64a5c6b55df8372a29cf32beb9f879c4,Trial,24,0,pnt_sp_1,NULL,&nbsp;&nbsp;&nbsp;&nbsp;click on the sound,T,NULL,2020
1447107952,64a5c6b55df8372a29cf32beb9f879c4,Trial,22,0,pnt_b_1,NULL,&nbsp;&nbsp;&nbsp;&nbsp;click on the sound,P,NULL,1833
1447107952,64a5c6b55df8372a29cf32beb9f879c4,Trial,23,0,pnt_b_18,NULL,&nbsp;&nbsp;&nbsp;&nbsp;click on the sound,T,NULL,2709
1447107952,64a5c6b55df8372a29cf32beb9f879c4,Trial,28,0,pto_b_1,NULL,&nbsp;&nbsp;&nbsp;&nbsp;click on the sound,P,NULL,3359
1447107952,64a5c6b55df8372a29cf32beb9f879c4,Trial,26,0,pto_sp_1,NULL,&nbsp;&nbsp;&nbsp;&nbsp;click on the sound,P,NULL,1959
1447107952,64a5c6b55df8372a29cf32beb9f879c4,Trial,27,0,pto_sp_18,NULL,&nbsp;&nbsp;&nbsp;&nbsp;click on the sound,T,NULL,1678
1447107952,64a5c6b55df8372a29cf32beb9f879c4,Trial,29,0,pto_b_18,NULL,&nbsp;&nbsp;&nbsp;&nbsp;click on the sound,NULL,NULL,3987
1447107952,64a5c6b55df8372a29cf32beb9f879c4,Trial,51,0,t_sp_1,NULL,NULL,P,NULL,1570
1447107952,64a5c6b55df8372a29cf32beb9f879c4,Trial,46,0,t_b_8,NULL,NULL,T,NULL,1302
1447107952,64a5c6b55df8372a29cf32beb9f879c4,Trial,44,0,t_b_1,NULL,NULL,P,NULL,1517
1447107952,64a5c6b55df8372a29cf32beb9f879c4,Trial,37,0,t_sp_1,NULL,NULL,P,NULL,1261
1447107952,64a5c6b55df8372a29cf32beb9f879c4,Trial,30,0,t_b_1,NULL,NULL,P,NULL,1171
1447107952,64a5c6b55df8372a29cf32beb9f879c4,Trial,47,0,t_b_9,NULL,NULL,P,NULL,1259
1447107952,64a5c6b55df8372a29cf32beb9f879c4,Trial,50,0,t_b_18,NULL,NULL,T,NULL,2412
1447107952,64a5c6b55df8372a29cf32beb9f879c4,Trial,45,0,t_b_7,NULL,NULL,T,NULL,1290
1447107952,64a5c6b55df8372a29cf32beb9f879c4,Trial,48,0,t_b_10,NULL,NULL,T,NULL,1227
1447107952,64a5c6b55df8372a29cf32beb9f879c4,Trial,56,0,t_sp_11,NULL,NULL,T,NULL,1669
1447107952,64a5c6b55df8372a29cf32beb9f879c4,Trial,38,0,t_sp_7,NULL,NULL,T,NULL,1201
1447107952,64a5c6b55df8372a29cf32beb9f879c4,Trial,32,0,t_b_8,NULL,NULL,T,NULL,1470
1447107952,64a5c6b55df8372a29cf32beb9f879c4,Trial,34,0,t_b_10,NULL,NULL,T,NULL,1113
1447107952,64a5c6b55df8372a29cf32beb9f879c4,Trial,41,0,t_sp_10,NULL,NULL,T,NULL,1070
1447107952,64a5c6b55df8372a29cf32beb9f879c4,Trial,36,0,t_b_18,NULL,NULL,T,NULL,1070
1447107952,64a5c6b55df8372a29cf32beb9f879c4,Trial,40,0,t_sp_9,NULL,NULL,T,NULL,1081
1447107952,64a5c6b55df8372a29cf32beb9f879c4,Trial,33,0,t_b_9,NULL,NULL,T,NULL,988
1447107952,64a5c6b55df8372a29cf32beb9f879c4,Trial,39,0,t_sp_8,NULL,NULL,T,NULL,966
1447107952,64a5c6b55df8372a29cf32beb9f879c4,Trial,54,0,t_sp_9,NULL,NULL,T,NULL,982
1447107952,64a5c6b55df8372a29cf32beb9f879c4,Trial,43,0,t_sp_18,NULL,NULL,T,NULL,649
1447107952,64a5c6b55df8372a29cf32beb9f879c4,Trial,53,0,t_sp_8,NULL,NULL,T,NULL,956
1447107952,64a5c6b55df8372a29cf32beb9f879c4,Trial,31,0,t_b_7,NULL,NULL,T,NULL,1025
1447107952,64a5c6b55df8372a29cf32beb9f879c4,Trial,57,0,t_sp_18,NULL,NULL,T,NULL,3665
1447107952,64a5c6b55df8372a29cf32beb9f879c4,Trial,35,0,t_b_11,NULL,NULL,T,NULL,989
1447107952,64a5c6b55df8372a29cf32beb9f879c4,Trial,42,0,t_sp_11,NULL,NULL,T,NULL,1000
1447107952,64a5c6b55df8372a29cf32beb9f879c4,Trial,49,0,t_b_11,NULL,NULL,T,NULL,1220
1447107952,64a5c6b55df8372a29cf32beb9f879c4,Trial,52,0,t_sp_7,NULL,NULL,P,NULL,695
1447107952,64a5c6b55df8372a29cf32beb9f879c4,Trial,55,0,t_sp_10,NULL,NULL,P,NULL,776
1447107952,64a5c6b55df8372a29cf32beb9f879c4,Trial,36,0,t_b_18,NULL,NULL,T,NULL,934
1447107952,64a5c6b55df8372a29cf32beb9f879c4,Trial,34,0,t_b_10,NULL,NULL,P,NULL,1342
1447107952,64a5c6b55df8372a29cf32beb9f879c4,Trial,31,0,t_b_7,NULL,NULL,P,NULL,868
